Folder: Bachelor-Analysis-Tools/TG_Data/Sif Data/STA TEST 2 - OXIDATION 800C 20% O2 (part 2)

File: ExpDat_PW2.csv
#EXPORTTYPE:                 ;DATA SINGLE
#FILE:                       ;PW2.ngb-dt6
#FORMAT:                     ;NETZSCH5
#FTYPE:                      ;ANSI
#IDENTITY:                   ;PW2
#DECIMAL:                    ;COMMA
#SEPARATOR:                  ;SEMICOLON
#MTYPE:                      ;TG
#INSTRUMENT:                 ;NETZSCH TG 209F3
#PROJECT:                    ;113397
#DATE/TIME:                  ;28-10-2025 12:37:16 (UTC+1)
#CORR. FILE:                 ;Correction for method CHAR_OXIDATION_800C_20-O2
#TEMPCAL:                    ;TCALZERO.TCX
#LABORATORY:                 ;053
#OPERATOR:                   ;ahugo
#REMARK:                     ;Initial mass: 4,607
#SAMPLE:                     ;PW2
#SAMPLE MASS /mg:            ;4,6073
#MATERIAL:                   ;biochar
#TYPE OF CRUCIBLE:           ;Al2O3 85 µl, open
#SAMPLE CRUCIBLE MASS /mg:   ;148,0053
#REFERENCE CRUCIBLE MASS /mg:;
#M.RANGE /mg:                ;2000
#CORR. CODE:                 ;020
#RANGE:                      ;35°C....800°C/0,0....40,0K/min
#SEGMENT:                    ;S1-3/3
#SEG. 1:                     ;35°C/40,0(K/min)/105°C
#SEG. 2:                     ;105°C/00:30/105°C
#SEG. 3:                     ;105°C/5,0(K/min)/800°C

##Temp./°C;Time/min;Mass/%;Segment
 32,32700;  0,00000;100,00000;1
 38,02800;  0,50000; 99,99566;1
 50,14600;  1,00000; 99,95659;1
 66,82500;  1,50000; 99,79598;1
 86,03327;  2,00000; 99,63693;2
 98,93889;  2,50000; 99,50700;2
106,04428;  3,00000; 99,47697;2
109,51258;  3,50000; 99,39663;2
110,75176;  4,00000; 99,34241;2
110,71525;  4,50000; 99,30525;2
110,00253;  5,00000; 99,26856;2
109,02338;  5,50000; 99,24667;2
107,99145;  6,00000; 99,18593;2
107,04863;  6,50000; 99,20571;2
106,24484;  7,00000; 99,14681;2
105,60825;  7,50000; 99,12112;2
105,12651;  8,00000; 99,12093;2
104,78467;  8,50000; 99,07117;2
104,55487;  9,00000; 99,05131;2
104,42297;  9,50000; 99,02547;2
104,35114; 10,00000; 98,97112;2
104,33111; 10,50000; 98,97773;2
104,34321; 11,00000; 98,96675;2
104,37328; 11,50000; 98,94519;2
104,42026; 12,00000; 98,91701;2
104,46830; 12,50000; 98,89311;2
104,51724; 13,00000; 98,85601;2
104,56522; 13,50000; 98,85627;2
104,60420; 14,00000; 98,82604;2
104,64722; 14,50000; 98,80594;2
104,68923; 15,00000; 98,77157;2
104,71724; 15,50000; 98,75620;2
104,73720; 16,00000; 98,74574;2
104,76717; 16,50000; 98,73685;2
104,78727; 17,00000; 98,68709;2
104,80222; 17,50000; 98,65659;2
104,82314; 18,00000; 98,66730;2
104,83917; 18,50000; 98,61958;2
104,85322; 19,00000; 98,60433;2
104,86318; 19,50000; 98,59340;2
104,87121; 20,00000; 98,56519;2
104,88118; 20,50000; 98,53918;2
104,89117; 21,00000; 98,53069;2
104,89917; 21,50000; 98,49994;2
104,91012; 22,00000; 98,45898;2
104,91816; 22,50000; 98,46348;2
104,91720; 23,00000; 98,43090;2
104,92713; 23,50000; 98,43502;2
104,93416; 24,00000; 98,40478;2
104,93816; 24,50000; 98,39420;2
104,94514; 25,00000; 98,36760;2
104,95119; 25,50000; 98,37623;2
104,95615; 26,00000; 98,33734;2
104,95620; 26,50000; 98,29012;2
104,96812; 27,00000; 98,29153;2
104,96713; 27,50000; 98,27876;2
104,97015; 28,00000; 98,25256;2
104,97016; 28,50000; 98,21171;2
104,97713; 29,00000; 98,20706;2
104,97507; 29,50000; 98,22248;2
104,97715; 30,00000; 98,18575;2
104,97814; 30,50000; 98,14620;2
104,97917; 31,00000; 98,13131;2
104,97715; 31,50000; 98,10738;2
105,20819; 32,00000; 98,03439;3
106,44375; 32,50000; 98,10482;3
108,33720; 33,00000; 98,09687;3
110,64782; 33,50000; 98,08488;3
113,19910; 34,00000; 98,08149;3
115,89240; 34,50000; 98,07044;3
118,64235; 35,00000; 98,05305;3
121,40330; 35,50000; 98,03201;3
124,15543; 36,00000; 98,00396;3
126,87102; 36,50000; 97,98794;3
129,52637; 37,00000; 97,99825;3
132,14797; 37,50000; 97,97713;3
134,76504; 38,00000; 97,96861;3
137,35733; 38,50000; 97,93667;3
139,90435; 39,00000; 97,93439;3
142,44837; 39,50000; 97,89042;3
145,00777; 40,00000; 97,91821;3
147,52692; 40,50000; 97,89643;3
150,04839; 41,00000; 97,89638;3
152,60407; 41,50000; 97,88891;3
155,11855; 42,00000; 97,89052;3
157,63762; 42,50000; 97,86128;3
160,18114; 43,00000; 97,87957;3
162,67762; 43,50000; 97,82580;3
165,20153; 44,00000; 97,86727;3
167,70830; 44,50000; 97,86344;3
170,21825; 45,00000; 97,81829;3
172,72234; 45,50000; 97,84293;3
175,22568; 46,00000; 97,85920;3
177,73227; 46,50000; 97,82700;3
180,23702; 47,00000; 97,81401;3
182,74039; 47,50000; 97,84344;3
185,23818; 48,00000; 97,86007;3
187,74180; 48,50000; 97,88055;3
190,24577; 49,00000; 97,81888;3
192,74998; 49,50000; 97,86770;3
195,25605; 50,00000; 97,88327;3
197,75549; 50,50000; 97,90005;3
200,25317; 51,00000; 97,89271;3
202,74693; 51,50000; 97,87950;3
205,25377; 52,00000; 97,91807;3
207,74816; 52,50000; 97,94258;3
210,25313; 53,00000; 97,93815;3
212,75903; 53,50000; 97,97283;3
215,26273; 54,00000; 97,99316;3
217,76422; 54,50000; 97,98240;3
220,26201; 55,00000; 98,00474;3
222,76426; 55,50000; 98,04833;3
225,27720; 56,00000; 98,04678;3
227,78204; 56,50000; 98,05741;3
230,28133; 57,00000; 98,12198;3
232,78607; 57,50000; 98,13898;3
235,28816; 58,00000; 98,14405;3
237,79494; 58,50000; 98,20066;3
240,29862; 59,00000; 98,23744;3
242,80548; 59,50000; 98,27356;3
245,30771; 60,00000; 98,29893;3
247,81185; 60,50000; 98,32126;3
250,32027; 61,00000; 98,36194;3
252,82524; 61,50000; 98,43338;3
255,32559; 62,00000; 98,41143;3
257,83893; 62,50000; 98,48177;3
260,34266; 63,00000; 98,50406;3
262,85176; 63,50000; 98,57972;3
265,35295; 64,00000; 98,62162;3
267,85782; 64,50000; 98,64472;3
270,37075; 65,00000; 98,72080;3
272,87474; 65,50000; 98,73700;3
275,37675; 66,00000; 98,79156;3
277,87371; 66,50000; 98,84921;3
280,38636; 67,00000; 98,89521;3
282,88764; 67,50000; 98,95022;3
285,39402; 68,00000; 98,95805;3
287,89962; 68,50000; 99,03669;3
290,40863; 69,00000; 99,06057;3
292,91872; 69,50000; 99,11627;3
295,42444; 70,00000; 99,19919;3
297,92872; 70,50000; 99,29247;3
300,42971; 71,00000; 99,28620;3
302,92966; 71,50000; 99,31638;3
305,43913; 72,00000; 99,38158;3
307,94290; 72,50000; 99,40547;3
310,44739; 73,00000; 99,44237;3
312,94782; 73,50000; 99,44763;3
315,45351; 74,00000; 99,46123;3
317,95434; 74,50000; 99,48414;3
320,46221; 75,00000; 99,46973;3
322,96329; 75,50000; 99,45938;3
325,46141; 76,00000; 99,40997;3
327,96589; 76,50000; 99,42060;3
330,47139; 77,00000; 99,36421;3
332,97777; 77,50000; 99,26938;3
335,47639; 78,00000; 99,13569;3
337,97925; 78,50000; 99,05887;3
340,48436; 79,00000; 98,93134;3
342,98758; 79,50000; 98,80623;3
345,48678; 80,00000; 98,61669;3
347,98080; 80,50000; 98,41744;3
350,48355; 81,00000; 98,19009;3
352,97940; 81,50000; 97,89842;3
355,48498; 82,00000; 97,71416;3
357,98993; 82,50000; 97,30103;3
360,49434; 83,00000; 97,02519;3
362,98529; 83,50000; 96,53619;3
365,48966; 84,00000; 96,19218;3
367,98887; 84,50000; 95,73816;3
370,49503; 85,00000; 95,23557;3
372,99691; 85,50000; 94,80250;3
375,49875; 86,00000; 94,20581;3
377,99456; 86,50000; 93,59165;3
380,49126; 87,00000; 92,91895;3
383,00076; 87,50000; 92,27222;3
385,50767; 88,00000; 91,50172;3
388,01480; 88,50000; 90,78595;3
390,51459; 89,00000; 89,95378;3
393,02166; 89,50000; 89,09997;3
395,52313; 90,00000; 88,14209;3
398,02965; 90,50000; 87,15647;3
400,53847; 91,00000; 86,17982;3
403,04210; 91,50000; 85,06502;3
405,55290; 92,00000; 83,91925;3
408,05972; 92,50000; 82,64087;3
410,56179; 93,00000; 81,34721;3
413,06783; 93,50000; 79,99289;3
415,57531; 94,00000; 78,58108;3
418,08274; 94,50000; 76,99963;3
420,58971; 95,00000; 75,38673;3
423,09732; 95,50000; 73,65450;3
425,60875; 96,00000; 71,84473;3
428,11918; 96,50000; 69,92243;3
430,62677; 97,00000; 67,69900;3
433,13814; 97,50000; 65,68391;3
435,65913; 98,00000; 63,42812;3
438,16953; 98,50000; 60,88091;3
440,68852; 99,00000; 58,45194;3
443,20740; 99,50000; 55,70101;3
445,73670;100,00000; 52,89261;3
448,26416;100,50000; 49,53529;3
450,80249;101,00000; 46,36740;3
453,34820;101,50000; 42,92751;3
455,90806;102,00000; 39,18504;3
458,48627;102,50000; 34,81940;3
461,09530;103,00000; 30,28292;3
463,73525;103,50000; 25,39356;3
466,35429;104,00000; 19,99375;3
468,73632;104,50000; 14,41314;3
470,81546;105,00000;  9,20822;3
472,69087;105,50000;  4,65582;3
474,39244;106,00000;  1,38117;3
476,27491;106,50000; -1,02215;3
478,41011;107,00000; -2,54851;3
480,80440;107,50000; -3,27143;3
483,54481;108,00000; -3,63625;3
486,44711;108,50000; -3,72846;3
489,35658;109,00000; -3,79382;3
492,22194;109,50000; -3,83009;3
494,99422;110,00000; -3,86207;3
497,69514;110,50000; -3,85258;3
500,32005;111,00000; -3,85350;3
502,90469;111,50000; -3,89616;3
505,45553;112,00000; -3,87226;3
507,98296;112,50000; -3,92756;3
510,49869;113,00000; -3,95027;3
513,00783;113,50000; -3,97857;3
515,51582;114,00000; -4,01208;3
518,01793;114,50000; -4,06761;3
520,51614;115,00000; -4,10068;3
523,02426;115,50000; -4,07952;3
525,52701;116,00000; -4,09541;3
528,03037;116,50000; -4,05740;3
530,52914;117,00000; -4,16682;3
533,03244;117,50000; -4,13247;3
535,53622;118,00000; -4,14615;3
538,03654;118,50000; -4,19763;3
540,54071;119,00000; -4,21117;3
543,04225;119,50000; -4,20608;3
545,54498;120,00000; -4,26934;3
548,04652;120,50000; -4,34069;3
550,54546;121,00000; -4,29981;3
553,04476;121,50000; -4,31537;3
555,54732;122,00000; -4,35858;3
558,05347;122,50000; -4,37044;3
560,55200;123,00000; -4,40136;3
563,05486;123,50000; -4,36470;3
565,55542;124,00000; -4,40298;3
568,05631;124,50000; -4,44048;3
570,56265;125,00000; -4,42166;3
573,05994;125,50000; -4,45382;3
575,56869;126,00000; -4,46897;3
578,06752;126,50000; -4,46282;3
580,56477;127,00000; -4,51469;3
583,06347;127,50000; -4,51248;3
585,57531;128,00000; -4,51888;3
588,06966;128,50000; -4,52886;3
590,56463;129,00000; -4,51682;3
593,07135;129,50000; -4,50835;3
595,57269;130,00000; -4,58701;3
598,07146;130,50000; -4,53986;3
600,57937;131,00000; -4,60421;3
603,08602;131,50000; -4,56739;3
605,58529;132,00000; -4,62192;3
608,09233;132,50000; -4,62002;3
610,58947;133,00000; -4,68423;3
613,09221;133,50000; -4,66221;3
615,60096;134,00000; -4,68379;3
618,10556;134,50000; -4,63905;3
620,60201;135,00000; -4,70329;3
623,10014;135,50000; -4,69064;3
625,60153;136,00000; -4,72398;3
628,11153;136,50000; -4,68330;3
630,60552;137,00000; -4,72511;3
633,10887;137,50000; -4,74934;3
635,59544;138,00000; -4,73830;3
638,09434;138,50000; -4,82848;3
640,60254;139,00000; -4,82294;3
643,11313;139,50000; -4,83056;3
645,59259;140,00000; -4,81847;3
648,10662;140,50000; -4,88583;3
650,60719;141,00000; -4,85171;3
653,08252;141,50000; -4,85976;3
655,59161;142,00000; -4,86220;3
658,14182;142,50000; -4,87343;3
660,63325;143,00000; -4,89675;3
663,13828;143,50000; -4,90083;3
665,63271;144,00000; -4,92112;3
668,12156;144,50000; -4,93587;3
670,60876;145,00000; -4,92233;3
673,09790;145,50000; -4,98530;3

File: ExpDat_WS1.csv
#EXPORTTYPE:                 ;DATA SINGLE
#FILE:                       ;WS1.ngb-dt6
#FORMAT:                     ;NETZSCH5
#FTYPE:                      ;ANSI
#IDENTITY:                   ;WS1
#DECIMAL:                    ;COMMA
#SEPARATOR:                  ;SEMICOLON
#MTYPE:                      ;TG
#INSTRUMENT:                 ;NETZSCH TG 209F3
#PROJECT:                    ;113397
#DATE/TIME:                  ;28-10-2025 02:06:51 (UTC+1)
#CORR. FILE:                 ;Correction for method CHAR_OXIDATION_800C_20-O2
#TEMPCAL:                    ;TCALZERO.TCX
#LABORATORY:                 ;053
#OPERATOR:                   ;ahugo
#REMARK:                     ;Initial mass: 4,639
#SAMPLE:                     ;WS1
#SAMPLE MASS /mg:            ;4,6389
#MATERIAL:                   ;biochar
#TYPE OF CRUCIBLE:           ;Al2O3 85 µl, open
#SAMPLE CRUCIBLE MASS /mg:   ;146,7211
#REFERENCE CRUCIBLE MASS /mg:;
#M.RANGE /mg:                ;2000
#CORR. CODE:                 ;020
#RANGE:                      ;35°C....800°C/0,0....40,0K/min
#SEGMENT:                    ;S2-3/3
#SEG. 1:                     ;35°C/40,0(K/min)/105°C
#SEG. 2:                     ;105°C/00:30/105°C
#SEG. 3:                     ;105°C/5,0(K/min)/800°C

##Temp./°C;Time/min;Mass/%;Segment
104,78999; 17,00000;97,65691;2
104,82396; 18,00000;97,63308;2
104,84788; 19,00000;97,57466;2
104,87790; 20,00000;97,54225;2
104,89391; 21,00000;97,49735;2
104,89882; 22,00000;97,42819;2
104,92085; 23,00000;97,39162;2
104,93384; 24,00000;97,35062;2
104,94283; 25,00000;97,30955;2
104,95081; 26,00000;97,25355;2
104,95583; 27,00000;97,21452;2
104,95887; 28,00000;97,16725;2
104,96794; 29,00000;97,11776;2
104,97089; 30,00000;97,08333;2
104,98190; 31,00000;97,03151;2
105,24614; 32,00000;96,99231;3
108,39060; 33,00000;96,98990;3
113,18211; 34,00000;96,98857;3
118,60193; 35,00000;96,96458;3
124,13326; 36,00000;96,92538;3
129,50186; 37,00000;96,87951;3
134,76502; 38,00000;96,83666;3
139,89643; 39,00000;96,78861;3
145,01178; 40,00000;96,73217;3
150,05991; 41,00000;96,70847;3
155,13622; 42,00000;96,66987;3
160,19764; 43,00000;96,63312;3
165,20859; 44,00000;96,57954;3
170,23698; 45,00000;96,55095;3
175,24188; 46,00000;96,51725;3
180,24347; 47,00000;96,47698;3
185,26237; 48,00000;96,51857;3
190,26140; 49,00000;96,44000;3
195,26211; 50,00000;96,44856;3
200,27065; 51,00000;96,42885;3
205,27349; 52,00000;96,41434;3
210,27160; 53,00000;96,40612;3
215,28375; 54,00000;96,39747;3
220,28327; 55,00000;96,37355;3
225,29323; 56,00000;96,36585;3
230,29800; 57,00000;96,38211;3
235,30776; 58,00000;96,32833;3
240,32471; 59,00000;96,36115;3
245,32588; 60,00000;96,32527;3
250,34327; 61,00000;96,29864;3
255,35228; 62,00000;96,28378;3
260,36428; 63,00000;96,26006;3
265,38120; 64,00000;96,24517;3
270,37916; 65,00000;96,22676;3
275,39983; 66,00000;96,15336;3
280,40893; 67,00000;96,04653;3
285,42037; 68,00000;95,91112;3
290,42402; 69,00000;95,77386;3
295,44203; 70,00000;95,57077;3
300,45471; 71,00000;95,29755;3
305,47267; 72,00000;94,97098;3
310,47718; 73,00000;94,59523;3
315,49444; 74,00000;94,11878;3
320,50411; 75,00000;93,47518;3
325,52814; 76,00000;92,73531;3
330,54497; 77,00000;91,86138;3
335,56198; 78,00000;90,78450;3
340,59421; 79,00000;89,52672;3
345,61953; 80,00000;88,10167;3
350,64960; 81,00000;86,34831;3
355,68644; 82,00000;84,31387;3
360,73123; 83,00000;81,85685;3
365,77837; 84,00000;78,95073;3
370,84214; 85,00000;75,50279;3
375,90144; 86,00000;71,49711;3
380,94746; 87,00000;66,70641;3
385,94679; 88,00000;60,83940;3
390,78623; 89,00000;54,92135;3
395,39212; 90,00000;48,82796;3
399,85723; 91,00000;43,61830;3
404,43390; 92,00000;39,39208;3
409,33776; 93,00000;36,27909;3
414,68102; 94,00000;33,96080;3
420,39997; 95,00000;31,32981;3
426,03030; 96,00000;27,83085;3
431,07999; 97,00000;23,57409;3
435,57157; 98,00000;19,48305;3
439,87192; 99,00000;16,33474;3
444,48799;100,00000;14,42626;3
449,55034;101,00000;13,35857;3
454,79279;102,00000;12,76406;3
460,02916;103,00000;12,40166;3
465,22512;104,00000;12,20737;3
470,33394;105,00000;12,08679;3
475,39899;106,00000;12,01326;3
480,42811;107,00000;11,85399;3
485,44850;108,00000;11,77638;3
490,46538;109,00000;11,72694;3
495,48455;110,00000;11,68537;3
500,49047;111,00000;11,63774;3
505,49853;112,00000;11,60914;3
510,50752;113,00000;11,52021;3
515,51289;114,00000;11,47722;3
520,52269;115,00000;11,38175;3
525,52609;116,00000;11,36420;3
530,52731;117,00000;11,28519;3
535,53239;118,00000;11,24230;3
540,53696;119,00000;11,19258;3
545,54204;120,00000;11,11478;3
550,54749;121,00000;11,03267;3
555,55488;122,00000;10,95308;3
560,56165;123,00000;10,88083;3
565,55651;124,00000;10,81765;3
570,55872;125,00000;10,73720;3
575,56373;126,00000;10,67709;3
580,56958;127,00000;10,59490;3
585,57270;128,00000;10,51946;3
590,57571;129,00000;10,51159;3
595,57631;130,00000;10,43316;3
600,58694;131,00000;10,35588;3
605,58536;132,00000;10,29347;3
610,59342;133,00000;10,24747;3
615,59748;134,00000;10,20632;3
620,60385;135,00000;10,15495;3
625,60290;136,00000;10,10347;3
630,60945;137,00000;10,07627;3
635,59834;138,00000;10,02534;3
640,59401;139,00000;10,00086;3
645,57922;140,00000; 9,97498;3
650,60309;141,00000; 9,92425;3
655,61222;142,00000; 9,84455;3
660,64873;143,00000; 9,81396;3
665,65059;144,00000; 9,75605;3
670,60215;145,00000; 9,70581;3
675,61269;146,00000; 9,60537;3
680,62159;147,00000; 9,57913;3
685,63410;148,00000; 9,57306;3
690,63337;149,00000; 9,45940;3
695,63651;150,00000; 9,40017;3
700,64095;151,00000; 9,33351;3
705,64509;152,00000; 9,22561;3
710,64394;153,00000; 9,11507;3
715,64968;154,00000; 9,05190;3