Folder: Bachelor-Analysis-Tools/TG_Data/Sif Data/STA TEST 2 - OXIDATION 800C 20% O2

Note: README.md
# bach tools
Utilised to analyse TG data for bachelors. Structure:
```
- TG_DATA/         # directory containing TG data files, from different TGs, only "Sif" data used.
    - Sif Data/
    - Odin Data/  # Should stay unused due to difference in Odin and Sif data
    - Samlede Data/ # Combined data from multiple TGs and multiple runs
        - AiO.xlsx       # "All in one" combined data-file for fast lookups of TG graphs and comparing various TGs.
- test/
    - test_literature_arrhenius.py   # test to see if data from an academic source would result in same results using functions in tg_math
- CHNS/        # CHNS analysis data, unused after making `Characterization_Proximate_Ultimate_CHEC_EA` which was another CHNS analysis machine
- BET Data + Reports/ # Data from Anton Nova Paar800 BET analyser
- tg_math.py      # module containing mathematical functions for TG data analysis
- tg_loader.py    # module containing functions to load TG data from excel files
- tg_plotting.py  # module containing functions to plot, save & show TG data
- main.py      # main script to run analyses (Should be cleaned up...)
```

## Used math functions:
### Non-isothermal TG Data:
- `estimate_global_coats_redfern_with_o2`: Uses the model 
  - `y = ln(g(w)/T^2) = ln(A*R/(beta*Ea)) + m*ln(yO2) - Ea/R * (1/T)`
  - Estimates activation energy and pre-exponential factor using Coats-Redfern method with oxygen data, needs multiple oxygen levels to estimate the oxygen order. Fits a line to a corrected oxygen plot done by doing a vertical shift by: `y*=y-m*ln(y(O2))`. Can obviously be used for other gas-types as long as composition is known. easy to expand.
- `simulate_alpha_ramp`: Simulate conversion alpha(t) for a non-isothermal ramp using:
  - `dα/dt = k(T,yO2) * (1-α)^(solid_order)` 
  - `k = A * yO2^m_o2 * exp(-Ea/(R*T))`
- `alpha_to_mass_pct`: Convert conversion alpha to mass percentage remaining using:
  - If mass loss:
    - `alpha=(m0-m)/(m0-m_inf) -> m = m0 - alpha*(m0-m_inf)`
  - If mass gain:
    -  `alpha=(m-m0)/(m_inf-m0) -> m = m0 + alpha*(m_inf-m0)`

### Isothermal TG Data:


## Plot saving
Plots save under the folder `Plots/` when using tg_plotting functions.

File: ExpDat_BRF1.csv
#EXPORTTYPE:                 ;DATA SINGLE
#FILE:                       ;BRF1.ngb-dt6
#FORMAT:                     ;NETZSCH5
#FTYPE:                      ;ANSI
#IDENTITY:                   ;BRF1
#DECIMAL:                    ;COMMA
#SEPARATOR:                  ;SEMICOLON
#MTYPE:                      ;TG
#INSTRUMENT:                 ;NETZSCH TG 209F3
#PROJECT:                    ;113397
#DATE/TIME:                  ;27-10-2025 19:06:21 (UTC+1)
#CORR. FILE:                 ;Correction for method CHAR_OXIDATION_800C_20-O2
#TEMPCAL:                    ;TCALZERO.TCX
#LABORATORY:                 ;053
#OPERATOR:                   ;ahugo
#REMARK:                     ;Initial mass: 5,389
#SAMPLE:                     ;BRF1
#SAMPLE MASS /mg:            ;5,3887
#MATERIAL:                   ;biochar
#TYPE OF CRUCIBLE:           ;Al2O3 85 µl, open
#SAMPLE CRUCIBLE MASS /mg:   ;144,9596
#REFERENCE CRUCIBLE MASS /mg:;
#M.RANGE /mg:                ;2000
#CORR. CODE:                 ;020
#RANGE:                      ;35°C....800°C/0,0....40,0K/min
#SEGMENT:                    ;S2-3/3
#SEG. 1:                     ;35°C/40,0(K/min)/105°C
#SEG. 2:                     ;105°C/00:30/105°C
#SEG. 3:                     ;105°C/5,0(K/min)/800°C

##Temp./°C;Time/min;Mass/%;Segment
104,78989; 17,00000;97,92165;2
104,81196; 18,00000;97,90482;2
104,84899; 19,00000;97,86216;2
104,86800; 20,00000;97,84546;2
104,88704; 21,00000;97,80473;2
104,90406; 22,00000;97,75075;2
104,91309; 23,00000;97,72108;2
104,92514; 24,00000;97,69711;2
104,94217; 25,00000;97,65982;2
104,95319; 26,00000;97,63009;2
104,95717; 27,00000;97,59283;2
104,97316; 28,00000;97,56502;2
104,97710; 29,00000;97,53735;2
104,98404; 30,00000;97,50587;2
104,98802; 31,00000;97,46510;2
105,19646; 32,00000;97,41378;3
108,34565; 33,00000;97,45460;3
113,23278; 34,00000;97,47775;3
118,65761; 35,00000;97,46712;3
124,17375; 36,00000;97,42665;3
129,54263; 37,00000;97,40017;3
134,77178; 38,00000;97,36975;3
139,92970; 39,00000;97,33466;3
145,00374; 40,00000;97,30154;3
150,06545; 41,00000;97,27548;3
155,15547; 42,00000;97,23329;3
160,18561; 43,00000;97,20346;3
165,21329; 44,00000;97,14644;3
170,24172; 45,00000;97,11595;3
175,23782; 46,00000;97,10002;3
180,25410; 47,00000;97,04696;3
185,26684; 48,00000;97,04567;3
190,26403; 49,00000;96,98337;3
195,27035; 50,00000;96,97724;3
200,27491; 51,00000;96,92699;3
205,27651; 52,00000;96,89695;3
210,27989; 53,00000;96,85391;3
215,28610; 54,00000;96,80759;3
220,28456; 55,00000;96,75279;3
225,29387; 56,00000;96,70661;3
230,30039; 57,00000;96,65774;3
235,30911; 58,00000;96,54787;3
240,32202; 59,00000;96,51110;3
245,33110; 60,00000;96,41257;3
250,33243; 61,00000;96,30025;3
255,34442; 62,00000;96,19077;3
260,35899; 63,00000;96,06668;3
265,37514; 64,00000;95,91489;3
270,38149; 65,00000;95,75020;3
275,39251; 66,00000;95,51472;3
280,40778; 67,00000;95,27106;3
285,42282; 68,00000;94,98788;3
290,44379; 69,00000;94,68882;3
295,45274; 70,00000;94,33387;3
300,48444; 71,00000;93,87919;3
305,50441; 72,00000;93,32089;3
310,53223; 73,00000;92,73048;3
315,56031; 74,00000;91,94600;3
320,59811; 75,00000;91,04209;3
325,64318; 76,00000;89,92900;3
330,69541; 77,00000;88,62831;3
335,74871; 78,00000;87,03066;3
340,81041; 79,00000;85,12744;3
345,85514; 80,00000;82,89385;3
350,87973; 81,00000;80,24578;3
355,86893; 82,00000;77,25776;3
360,80426; 83,00000;73,85263;3
365,64302; 84,00000;70,31337;3
370,36013; 85,00000;66,75806;3
374,99249; 86,00000;63,59968;3
379,66653; 87,00000;61,01435;3
384,55122; 88,00000;59,02214;3
389,65273; 89,00000;57,61755;3
394,89294; 90,00000;56,45112;3
400,17559; 91,00000;55,34517;3
405,47923; 92,00000;54,14224;3
410,84969; 93,00000;52,47629;3
415,95918; 94,00000;50,37254;3
420,51840; 95,00000;48,27516;3
424,91233; 96,00000;46,82228;3
429,71992; 97,00000;46,05393;3
434,92943; 98,00000;45,57886;3
440,16166; 99,00000;45,24201;3
445,30594;100,00000;44,97310;3
450,37440;101,00000;44,69951;3
455,40054;102,00000;44,41819;3
460,42090;103,00000;44,18243;3
465,42972;104,00000;43,95102;3
470,43439;105,00000;43,74694;3
475,44414;106,00000;43,60638;3
480,44128;107,00000;43,35069;3
485,44328;108,00000;43,21635;3
490,44600;109,00000;43,06957;3
495,45251;110,00000;42,95642;3
500,46205;111,00000;42,84622;3
505,46925;112,00000;42,77403;3
510,48638;113,00000;42,65774;3
515,50136;114,00000;42,58730;3
520,51515;115,00000;42,49641;3
525,52344;116,00000;42,45593;3
530,53159;117,00000;42,37068;3
535,53756;118,00000;42,33192;3
540,53709;119,00000;42,26443;3
545,54367;120,00000;42,18501;3
550,55010;121,00000;42,12333;3
555,54881;122,00000;42,06930;3
560,55398;123,00000;41,94539;3
565,55810;124,00000;41,87656;3
570,56575;125,00000;41,78843;3
575,56540;126,00000;41,70769;3
580,57090;127,00000;41,61639;3
585,57743;128,00000;41,54983;3
590,57895;129,00000;41,50230;3
595,58177;130,00000;41,43049;3
600,58614;131,00000;41,35625;3
605,58938;132,00000;41,31527;3
610,59129;133,00000;41,24798;3
615,60648;134,00000;41,21833;3
620,60679;135,00000;41,17166;3
625,60856;136,00000;41,13686;3
630,62740;137,00000;41,10288;3
635,58289;138,00000;41,05816;3
640,60045;139,00000;41,02283;3
645,61885;140,00000;40,97865;3
650,65218;141,00000;40,92059;3
655,64360;142,00000;40,85375;3
660,65659;143,00000;40,80650;3
665,63047;144,00000;40,75207;3
670,62953;145,00000;40,70550;3
675,62200;146,00000;40,65626;3
680,65233;147,00000;40,62390;3
685,65518;148,00000;40,60482;3
690,65536;149,00000;40,52711;3
695,65325;150,00000;40,48030;3
700,65299;151,00000;40,43585;3
705,65802;152,00000;40,34262;3
710,65823;153,00000;40,25876;3
715,65988;154,00000;40,21975;3

File: ExpDat_BRF2.csv
#EXPORTTYPE:                 ;DATA SINGLE
#FILE:                       ;BRF2.ngb-dt6
#FORMAT:                     ;NETZSCH5
#FTYPE:                      ;ANSI
#IDENTITY:                   ;BRF2
#DECIMAL:                    ;COMMA
#SEPARATOR:                  ;SEMICOLON
#MTYPE:                      ;TG
#INSTRUMENT:                 ;NETZSCH TG 209F3
#PROJECT:                    ;113397
#DATE/TIME:                  ;27-10-2025 22:36:38 (UTC+1)
#CORR. FILE:                 ;Correction for method CHAR_OXIDATION_800C_20-O2
#TEMPCAL:                    ;TCALZERO.TCX
#LABORATORY:                 ;053
#OPERATOR:                   ;ahugo
#REMARK:                     ;Initial mass: 5,320
#SAMPLE:                     ;BRF2
#SAMPLE MASS /mg:            ;5,3202
#MATERIAL:                   ;biochar
#TYPE OF CRUCIBLE:           ;Al2O3 85 µl, open
#SAMPLE CRUCIBLE MASS /mg:   ;143,8591
#REFERENCE CRUCIBLE MASS /mg:;
#M.RANGE /mg:                ;2000
#CORR. CODE:                 ;020
#RANGE:                      ;35°C....800°C/0,0....40,0K/min
#SEGMENT:                    ;S2-3/3
#SEG. 1:                     ;35°C/40,0(K/min)/105°C
#SEG. 2:                     ;105°C/00:30/105°C
#SEG. 3:                     ;105°C/5,0(K/min)/800°C

##Temp./°C;Time/min;Mass/%;Segment
104,78464; 17,00000;97,62250;2
104,82280; 18,00000;97,57917;2
104,85675; 19,00000;97,52971;2
104,86681; 20,00000;97,50361;2
104,88585; 21,00000;97,43806;2
104,90678; 22,00000;97,39854;2
104,91082; 23,00000;97,36105;2
104,92992; 24,00000;97,32720;2
104,93901; 25,00000;97,28920;2
104,94706; 26,00000;97,25184;2
104,95019; 27,00000;97,20613;2
104,95919; 28,00000;97,18378;2
104,97619; 29,00000;97,14474;2
104,97640; 30,00000;97,10331;2
104,98732; 31,00000;97,05857;2
105,22394; 32,00000;96,97905;3
108,38450; 33,00000;97,03598;3
113,24532; 34,00000;97,04334;3
118,65890; 35,00000;97,02265;3
124,15429; 36,00000;96,98214;3
129,54726; 37,00000;96,94606;3
134,76291; 38,00000;96,91540;3
139,92604; 39,00000;96,87001;3
144,99693; 40,00000;96,82510;3
150,07486; 41,00000;96,80087;3
155,14275; 42,00000;96,75465;3
160,17914; 43,00000;96,71634;3
165,21481; 44,00000;96,67027;3
170,23657; 45,00000;96,61418;3
175,24236; 46,00000;96,58834;3
180,25766; 47,00000;96,53337;3
185,26157; 48,00000;96,53959;3
190,26958; 49,00000;96,45205;3
195,27660; 50,00000;96,44713;3
200,28272; 51,00000;96,39512;3
205,28268; 52,00000;96,37585;3
210,28472; 53,00000;96,32202;3
215,28633; 54,00000;96,27529;3
220,28588; 55,00000;96,22675;3
225,28919; 56,00000;96,16056;3
230,30162; 57,00000;96,11937;3
235,30839; 58,00000;96,03413;3
240,31725; 59,00000;95,97181;3
245,33937; 60,00000;95,86716;3
250,33475; 61,00000;95,74698;3
255,34767; 62,00000;95,63033;3
260,36159; 63,00000;95,48513;3
265,38116; 64,00000;95,32730;3
270,39057; 65,00000;95,14629;3
275,40006; 66,00000;94,90285;3
280,41042; 67,00000;94,63031;3
285,42292; 68,00000;94,31474;3
290,44514; 69,00000;93,96705;3
295,46538; 70,00000;93,58056;3
300,49983; 71,00000;93,06393;3
305,51647; 72,00000;92,49585;3
310,54305; 73,00000;91,78391;3
315,57213; 74,00000;90,93605;3
320,61410; 75,00000;89,94727;3
325,66270; 76,00000;88,75129;3
330,71365; 77,00000;87,28453;3
335,77361; 78,00000;85,54682;3
340,83081; 79,00000;83,41182;3
345,88168; 80,00000;80,96265;3
350,90272; 81,00000;78,02363;3
355,87125; 82,00000;74,69096;3
360,78212; 83,00000;71,00328;3
365,59308; 84,00000;67,17271;3
370,27909; 85,00000;63,45982;3
374,91571; 86,00000;60,15125;3
379,63351; 87,00000;57,49216;3
384,54470; 88,00000;55,44240;3
389,65744; 89,00000;53,92707;3
394,90102; 90,00000;52,70881;3
400,18497; 91,00000;51,54977;3
405,51541; 92,00000;50,26012;3
410,90384; 93,00000;48,37764;3
415,95907; 94,00000;46,05348;3
420,44807; 95,00000;43,85983;3
424,85448; 96,00000;42,37105;3
429,69507; 97,00000;41,56208;3
434,92126; 98,00000;41,08178;3
440,16134; 99,00000;40,73557;3
445,30565;100,00000;40,45252;3
450,38445;101,00000;40,14190;3
455,41029;102,00000;39,86504;3
460,42073;103,00000;39,60949;3
465,42501;104,00000;39,39429;3
470,44168;105,00000;39,15668;3
475,43641;106,00000;38,97354;3
480,43929;107,00000;38,73964;3
485,44922;108,00000;38,56438;3
490,45572;109,00000;38,41768;3
495,45574;110,00000;38,28340;3
500,46528;111,00000;38,16026;3
505,48143;112,00000;38,07738;3
510,49582;113,00000;37,95745;3
515,50804;114,00000;37,87674;3
520,52285;115,00000;37,76041;3
525,52925;116,00000;37,71102;3
530,53019;117,00000;37,62147;3
535,53956;118,00000;37,57403;3
540,53883;119,00000;37,49529;3
545,54645;120,00000;37,41650;3
550,55343;121,00000;37,33317;3
555,55226;122,00000;37,24282;3
560,55815;123,00000;37,14553;3
565,55813;124,00000;37,05712;3
570,56359;125,00000;36,98707;3
575,56733;126,00000;36,86512;3
580,56982;127,00000;36,77679;3
585,58286;128,00000;36,70541;3
590,57194;129,00000;36,63963;3
595,58569;130,00000;36,55051;3
600,58134;131,00000;36,47394;3
605,59263;132,00000;36,41203;3
610,59400;133,00000;36,33119;3
615,59882;134,00000;36,28628;3
620,60330;135,00000;36,22963;3
625,60878;136,00000;36,16614;3
630,62159;137,00000;36,12127;3
635,60186;138,00000;36,06955;3
640,59582;139,00000;36,03994;3
645,60432;140,00000;35,95382;3
650,61865;141,00000;35,90566;3
655,64920;142,00000;35,81623;3
660,66405;143,00000;35,79972;3
665,61541;144,00000;35,73025;3
670,61727;145,00000;35,67035;3
675,62256;146,00000;35,58304;3
680,63547;147,00000;35,55654;3
685,64489;148,00000;35,53773;3
690,65136;149,00000;35,43286;3
695,64310;150,00000;35,36862;3
700,64881;151,00000;35,33583;3
705,65271;152,00000;35,24244;3
710,65740;153,00000;35,16614;3
715,66168;154,00000;35,08709;3

File: ExpDat_PW1.csv
#EXPORTTYPE:                 ;DATA SINGLE
#FILE:                       ;PW1.ngb-dt6
#FORMAT:                     ;NETZSCH5
#FTYPE:                      ;ANSI
#IDENTITY:                   ;PW1
#DECIMAL:                    ;COMMA
#SEPARATOR:                  ;SEMICOLON
#MTYPE:                      ;TG
#INSTRUMENT:                 ;NETZSCH TG 209F3
#PROJECT:                    ;113397
#DATE/TIME:                  ;28-10-2025 09:06:57 (UTC+1)
#CORR. FILE:                 ;Correction for method CHAR_OXIDATION_800C_20-O2
#TEMPCAL:                    ;TCALZERO.TCX
#LABORATORY:                 ;053
#OPERATOR:                   ;ahugo
#REMARK:                     ;Initial mass: 5,028
#SAMPLE:                     ;PW1
#SAMPLE MASS /mg:            ;5,0281
#MATERIAL:                   ;biochar
#TYPE OF CRUCIBLE:           ;Al2O3 85 µl, open
#SAMPLE CRUCIBLE MASS /mg:   ;144,7689
#REFERENCE CRUCIBLE MASS /mg:;
#M.RANGE /mg:                ;2000
#CORR. CODE:                 ;020
#RANGE:                      ;35°C....800°C/0,0....40,0K/min
#SEGMENT:                    ;S2-3/3
#SEG. 1:                     ;35°C/40,0(K/min)/105°C
#SEG. 2:                     ;105°C/00:30/105°C
#SEG. 3:                     ;105°C/5,0(K/min)/800°C

##Temp./°C;Time/min;Mass/%;Segment
104,78040; 17,00000;98,73330;2
104,82032; 18,00000;98,71529;2
104,85127; 19,00000;98,66536;2
104,87937; 20,00000;98,61727;2
104,89531; 21,00000;98,58612;2
104,90930; 22,00000;98,53010;2
104,92826; 23,00000;98,49479;2
104,93711; 24,00000;98,45843;2
104,94819; 25,00000;98,40695;2
104,96110; 26,00000;98,38686;2
104,96507; 27,00000;98,34467;2
104,97206; 28,00000;98,32896;2
104,97207; 29,00000;98,28935;2
104,97894; 30,00000;98,26128;2
104,97905; 31,00000;98,20604;2
105,19041; 32,00000;98,12056;3
108,32773; 33,00000;98,15427;3
113,21246; 34,00000;98,15281;3
118,64494; 35,00000;98,12267;3
124,16830; 36,00000;98,09876;3
129,52791; 37,00000;98,05341;3
134,78000; 38,00000;98,04864;3
139,89623; 39,00000;98,03554;3
145,01275; 40,00000;98,01168;3
150,06747; 41,00000;98,01509;3
155,12062; 42,00000;97,99915;3
160,18964; 43,00000;97,99134;3
165,20791; 44,00000;97,97473;3
170,22131; 45,00000;97,94918;3
175,23045; 46,00000;97,97127;3
180,23848; 47,00000;97,95727;3
185,24647; 48,00000;98,00303;3
190,25949; 49,00000;97,97263;3
195,24981; 50,00000;98,00635;3
200,25674; 51,00000;98,02712;3
205,26314; 52,00000;98,05848;3
210,26262; 53,00000;98,09873;3
215,26841; 54,00000;98,13136;3
220,27565; 55,00000;98,17121;3
225,27983; 56,00000;98,20475;3
230,28733; 57,00000;98,27812;3
235,30187; 58,00000;98,30547;3
240,30602; 59,00000;98,38506;3
245,31683; 60,00000;98,45551;3
250,33040; 61,00000;98,51215;3
255,33679; 62,00000;98,59752;3
260,34838; 63,00000;98,69459;3
265,36438; 64,00000;98,77898;3
270,36819; 65,00000;98,89772;3
275,38453; 66,00000;98,96730;3
280,38830; 67,00000;99,02337;3
285,40225; 68,00000;99,11658;3
290,41338; 69,00000;99,24015;3
295,43239; 70,00000;99,37148;3
300,44558; 71,00000;99,46324;3
305,45332; 72,00000;99,53085;3
310,46519; 73,00000;99,60979;3
315,47069; 74,00000;99,62877;3
320,47840; 75,00000;99,64409;3
325,48282; 76,00000;99,59808;3
330,47978; 77,00000;99,51863;3
335,49177; 78,00000;99,34995;3
340,49585; 79,00000;99,09486;3
345,49983; 80,00000;98,83254;3
350,49784; 81,00000;98,39613;3
355,50098; 82,00000;97,80212;3
360,50359; 83,00000;97,16697;3
365,49562; 84,00000;96,35872;3
370,49971; 85,00000;95,42820;3
375,50497; 86,00000;94,38088;3
380,50331; 87,00000;93,11935;3
385,52148; 88,00000;91,73469;3
390,52635; 89,00000;90,16307;3
395,53923; 90,00000;88,40887;3
400,55063; 91,00000;86,41339;3
405,56494; 92,00000;84,20639;3
410,57818; 93,00000;81,67284;3
415,59306; 94,00000;78,94133;3
420,61159; 95,00000;75,80204;3
425,63476; 96,00000;72,31380;3
430,65551; 97,00000;68,38788;3
435,68350; 98,00000;64,03270;3
440,71601; 99,00000;58,93368;3
445,76018;100,00000;53,66439;3
450,81963;101,00000;47,16664;3
455,91975;102,00000;39,90612;3
461,05991;103,00000;31,59439;3
466,18430;104,00000;22,01082;3
470,88068;105,00000;11,80324;3
474,72580;106,00000; 3,41761;3
478,49519;107,00000;-1,10436;3
483,31670;108,00000;-2,61120;3
489,09248;109,00000;-2,88340;3
494,85955;110,00000;-2,92433;3
500,26650;111,00000;-2,96994;3
505,43786;112,00000;-2,96791;3
510,49661;113,00000;-3,04889;3
515,52130;114,00000;-3,05228;3
520,53072;115,00000;-3,09720;3
525,52999;116,00000;-3,15411;3
530,52846;117,00000;-3,23149;3
535,53601;118,00000;-3,20317;3
540,53944;119,00000;-3,26377;3
545,54187;120,00000;-3,34521;3
550,55285;121,00000;-3,35711;3
555,55753;122,00000;-3,35076;3
560,56282;123,00000;-3,42818;3
565,56682;124,00000;-3,42895;3
570,56578;125,00000;-3,43195;3
575,56655;126,00000;-3,51249;3
580,57679;127,00000;-3,52028;3
585,57237;128,00000;-3,52241;3
590,57845;129,00000;-3,52084;3
595,58284;130,00000;-3,54319;3
600,57915;131,00000;-3,59790;3
605,58597;132,00000;-3,60081;3
610,59476;133,00000;-3,64818;3
615,60021;134,00000;-3,65818;3
620,59815;135,00000;-3,66827;3
625,60675;136,00000;-3,70764;3
630,61067;137,00000;-3,70939;3
635,60259;138,00000;-3,71133;3
640,60763;139,00000;-3,72223;3
645,61760;140,00000;-3,73992;3
650,59770;141,00000;-3,77464;3
655,60677;142,00000;-3,76470;3
660,63881;143,00000;-3,81911;3
665,63848;144,00000;-3,82837;3
670,62212;145,00000;-3,90626;3
675,62252;146,00000;-3,90437;3
680,64027;147,00000;-3,90908;3
685,63248;148,00000;-3,82904;3
690,64266;149,00000;-3,94186;3
695,64819;150,00000;-3,91456;3
700,64867;151,00000;-3,92801;3
705,65570;152,00000;-3,98764;3
710,64972;153,00000;-4,02890;3
715,65670;154,00000;-3,99184;3