Folder: Bachelor-Analysis-Tools/TG_Data/Sif Data/STA TEST 2 - OXIDATION 800C 20% O2 (part 3)

File: ExpDat_WS2.csv
#EXPORTTYPE:                 ;DATA SINGLE
#FILE:                       ;WS2.ngb-dt6
#FORMAT:                     ;NETZSCH5
#FTYPE:                      ;ANSI
#IDENTITY:                   ;WS2
#DECIMAL:                    ;COMMA
#SEPARATOR:                  ;SEMICOLON
#MTYPE:                      ;TG
#INSTRUMENT:                 ;NETZSCH TG 209F3
#PROJECT:                    ;113397
#DATE/TIME:                  ;28-10-2025 05:36:56 (UTC+1)
#CORR. FILE:                 ;Correction for method CHAR_OXIDATION_800C_20-O2
#TEMPCAL:                    ;TCALZERO.TCX
#LABORATORY:                 ;053
#OPERATOR:                   ;ahugo
#REMARK:                     ;Initial mass: 4,663
#SAMPLE:                     ;WS2
#SAMPLE MASS /mg:            ;4,6633
#MATERIAL:                   ;biochar
#TYPE OF CRUCIBLE:           ;Al2O3 85 µl, open
#SAMPLE CRUCIBLE MASS /mg:   ;143,6618
#REFERENCE CRUCIBLE MASS /mg:;
#M.RANGE /mg:                ;2000
#CORR. CODE:                 ;020
#RANGE:                      ;35°C....800°C/0,0....40,0K/min
#SEGMENT:                    ;S2-3/3
#SEG. 1:                     ;35°C/40,0(K/min)/105°C
#SEG. 2:                     ;105°C/00:30/105°C
#SEG. 3:                     ;105°C/5,0(K/min)/800°C

##Temp./°C;Time/min;Mass/%;Segment
104,78518; 17,00000;97,63733;2
104,80569; 17,47500;97,59811;2
104,81720; 17,95000;97,58745;2
104,82268; 18,42500;97,55468;2
104,84592; 18,90000;97,54062;2
104,85213; 19,37500;97,52651;2
104,87091; 19,85000;97,48029;2
104,88392; 20,32500;97,46572;2
104,88313; 20,80000;97,45463;2
104,88752; 21,27500;97,44409;2
104,89409; 21,75000;97,40724;2
104,91044; 22,22500;97,38084;2
104,91682; 22,70000;97,34937;2
104,92595; 23,17500;97,32569;2
104,93701; 23,65000;97,30661;2
104,93801; 24,12500;97,27803;2
104,93218; 24,60000;97,29801;2
104,93628; 25,07500;97,24200;2
104,93993; 25,55000;97,26570;2
104,95327; 26,02500;97,21678;2
104,95986; 26,50000;97,19335;2
104,96364; 26,97500;97,17832;2
104,96810; 27,45000;97,16289;2
104,96189; 27,92500;97,15103;2
104,96111; 28,40000;97,10708;2
104,97109; 28,87500;97,09920;2
104,97484; 29,35000;97,07273;2
104,97897; 29,82500;97,06140;2
104,98101; 30,30000;97,03017;2
104,98142; 30,77500;97,02325;2
104,98118; 31,25000;96,99786;2
104,98054; 31,72500;96,94981;2
105,66916; 32,20000;96,95615;3
107,11424; 32,67500;96,93550;3
109,03671; 33,15000;96,97446;3
111,26282; 33,62500;96,96063;3
113,71550; 34,10000;96,96404;3
116,29657; 34,57500;96,96580;3
118,89469; 35,05000;96,94024;3
121,51540; 35,52500;96,92392;3
124,13640; 36,00000;96,89289;3
126,69694; 36,47500;96,87794;3
129,24066; 36,95000;96,85017;3
131,76692; 37,42500;96,84777;3
134,22806; 37,90000;96,80292;3
136,70713; 38,37500;96,77749;3
139,14166; 38,85000;96,77032;3
141,55951; 39,32500;96,75635;3
143,98890; 39,80000;96,73657;3
146,37603; 40,27500;96,71890;3
148,80930; 40,75000;96,69751;3
151,18446; 41,22500;96,66961;3
153,62235; 41,70000;96,60863;3
155,99976; 42,17500;96,63977;3
158,41560; 42,65000;96,60169;3
160,80178; 43,12500;96,60766;3
163,20806; 43,60000;96,50900;3
165,58308; 44,07500;96,56967;3
167,97297; 44,55000;96,54529;3
170,35686; 45,02500;96,52636;3
172,73572; 45,50000;96,48138;3
175,11490; 45,97500;96,49962;3
177,48813; 46,45000;96,48745;3
179,87214; 46,92500;96,46245;3
182,24836; 47,40000;96,46394;3
184,62692; 47,87500;96,46213;3
186,99732; 48,35000;96,43362;3
189,37691; 48,82500;96,47673;3
191,75821; 49,30000;96,46402;3
194,13939; 49,77500;96,43186;3
196,51685; 50,25000;96,43389;3
198,89146; 50,72500;96,41096;3
201,26695; 51,20000;96,40089;3
203,64188; 51,67500;96,40661;3
206,01733; 52,15000;96,41909;3
208,39852; 52,62500;96,38600;3
210,77220; 53,10000;96,38960;3
213,14800; 53,57500;96,38878;3
215,52425; 54,05000;96,35428;3
217,89773; 54,52500;96,35456;3
220,27640; 55,00000;96,31748;3
222,66186; 55,47500;96,36567;3
225,03846; 55,95000;96,34837;3
227,42132; 56,42500;96,32447;3
229,79358; 56,90000;96,34235;3
232,17383; 57,37500;96,33320;3
234,55409; 57,85000;96,33842;3
236,93878; 58,32500;96,34605;3
239,31574; 58,80000;96,32870;3
241,69591; 59,27500;96,33183;3
244,08000; 59,75000;96,31826;3
246,45357; 60,22500;96,30130;3
248,83064; 60,70000;96,31341;3
251,21295; 61,17500;96,30546;3
253,59602; 61,65000;96,30965;3
255,97425; 62,12500;96,28099;3
258,35703; 62,60000;96,29321;3
260,72968; 63,07500;96,22168;3
263,11334; 63,55000;96,21843;3
265,50016; 64,02500;96,23309;3
267,87928; 64,50000;96,17767;3
270,26193; 64,97500;96,18235;3
272,64415; 65,45000;96,12504;3
275,02066; 65,92500;96,11626;3
277,39600; 66,40000;96,05656;3
279,76885; 66,87500;96,00791;3
282,14935; 67,35000;95,94709;3
284,53667; 67,82500;95,91038;3
286,91467; 68,30000;95,83542;3
289,29591; 68,77500;95,75444;3
291,67276; 69,25000;95,66344;3
294,06082; 69,72500;95,59464;3
296,44160; 70,20000;95,45858;3
298,82112; 70,67500;95,32985;3
301,19604; 71,15000;95,21147;3
303,57884; 71,62500;95,06480;3
305,95361; 72,10000;94,92345;3
308,34132; 72,57500;94,71218;3
310,72521; 73,05000;94,50798;3
313,10824; 73,52500;94,28307;3
315,48779; 74,00000;94,03992;3
317,87070; 74,47500;93,73611;3
320,25118; 74,95000;93,45269;3
322,63971; 75,42500;93,11799;3
325,01432; 75,90000;92,73330;3
327,40078; 76,37500;92,38172;3
329,78722; 76,85000;91,95357;3
332,17056; 77,32500;91,49838;3
334,55988; 77,80000;91,00720;3
336,94266; 78,27500;90,48373;3
339,33626; 78,75000;89,89683;3
341,71778; 79,22500;89,26280;3
344,11138; 79,70000;88,55374;3
346,49791; 80,17500;87,82737;3
348,89131; 80,65000;87,04436;3
351,27440; 81,12500;86,14308;3
353,66508; 81,60000;85,20151;3
356,05773; 82,07500;84,17370;3
358,45175; 82,55000;83,09731;3
360,85032; 83,02500;81,86489;3
363,24872; 83,50000;80,56542;3
365,65402; 83,97500;79,17596;3
368,04717; 84,45000;77,59696;3
370,45575; 84,92500;76,04092;3
372,85745; 85,40000;74,22749;3
375,25983; 85,87500;72,31033;3
377,65632; 86,35000;70,19786;3
380,05531; 86,82500;67,96235;3
382,45252; 87,30000;65,59762;3
384,83097; 87,77500;62,85452;3
387,18194; 88,25000;60,16562;3
389,48499; 88,72500;57,30372;3
391,74104; 89,20000;54,45536;3
393,93325; 89,67500;51,38812;3
396,07362; 90,15000;48,74351;3
398,19153; 90,62500;46,04163;3
400,31896; 91,10000;43,87932;3
402,48251; 91,57500;41,81717;3
404,70587; 92,05000;40,00255;3
407,00891; 92,52500;38,42798;3
409,39658; 93,00000;37,03199;3
411,86363; 93,47500;35,87590;3
414,41953; 93,95000;34,70858;3
417,07757; 94,42500;33,61800;3
419,78944; 94,90000;32,33928;3
422,50933; 95,37500;30,95496;3
425,15965; 95,85000;29,23509;3
427,71290; 96,32500;27,28622;3
430,11950; 96,80000;25,35855;3
432,38800; 97,27500;23,31539;3
434,54619; 97,75000;21,35752;3
436,60050; 98,22500;19,57487;3
438,61936; 98,70000;18,01330;3
440,68636; 99,17500;16,83629;3
442,84181; 99,65000;15,76577;3
445,11568;100,12500;15,08348;3
447,48091;100,60000;14,48496;3
449,92679;101,07500;14,11104;3
452,40214;101,55000;13,74734;3
454,89564;102,02500;13,51528;3
457,39692;102,50000;13,34126;3
459,89059;102,97500;13,18807;3
462,37231;103,45000;13,08932;3
464,82978;103,92500;13,00049;3
467,27390;104,40000;12,86871;3
469,70065;104,87500;12,81281;3
472,11409;105,35000;12,77632;3
474,51539;105,82500;12,69007;3
476,91353;106,30000;12,61597;3
479,29851;106,77500;12,56018;3
481,68831;107,25000;12,55891;3
484,07495;107,72500;12,53613;3
486,45852;108,20000;12,45699;3
488,83406;108,67500;12,44485;3
491,21209;109,15000;12,37287;3
493,59833;109,62500;12,36220;3
495,98377;110,10000;12,33253;3
498,36188;110,57500;12,33311;3
500,73728;111,05000;12,28314;3
503,12532;111,52500;12,22385;3
505,50540;112,00000;12,26519;3
507,87786;112,47500;12,20162;3
510,26126;112,95000;12,16947;3
512,63606;113,42500;12,14833;3
515,01439;113,90000;12,11390;3
517,39684;114,37500;12,06197;3
519,77117;114,85000;12,05105;3
522,14620;115,32500;12,07975;3
524,53077;115,80000;12,05476;3
526,90784;116,27500;11,99805;3
529,28418;116,75000;11,93788;3
531,66514;117,22500;11,96166;3
534,03249;117,70000;11,91473;3
536,40970;118,17500;11,88219;3
538,78631;118,65000;11,84790;3
541,16772;119,12500;11,82834;3
543,54676;119,60000;11,79790;3
545,91792;120,07500;11,72844;3
548,29734;120,55000;11,69457;3
550,67075;121,02500;11,66472;3
553,05460;121,50000;11,65418;3
555,43378;121,97500;11,61439;3
557,81017;122,45000;11,56913;3
560,18865;122,92500;11,53060;3
562,55947;123,40000;11,50455;3
564,93286;123,87500;11,46187;3
567,30717;124,35000;11,42966;3
569,68236;124,82500;11,39344;3
572,05992;125,30000;11,35203;3
574,43868;125,77500;11,31017;3
576,81417;126,25000;11,27080;3
579,19440;126,72500;11,28579;3
581,57687;127,20000;11,24098;3
583,94426;127,67500;11,19342;3
586,32712;128,15000;11,19784;3
588,69888;128,62500;11,12927;3
591,06850;129,10000;11,11513;3
593,44568;129,57500;11,06936;3
595,82528;130,05000;11,05317;3
598,20446;130,52500;11,00147;3
600,57553;131,00000;10,96253;3
602,95693;131,47500;10,98348;3
605,33447;131,95000;10,91861;3
607,71566;132,42500;10,92252;3
610,09659;132,90000;10,87550;3
612,47363;133,37500;10,84234;3
614,84708;133,85000;10,82436;3
617,22158;134,32500;10,80329;3
619,60394;134,80000;10,74131;3
621,97779;135,27500;10,72632;3
624,35521;135,75000;10,76861;3
626,73392;136,22500;10,72211;3
629,11912;136,70000;10,72369;3
631,48802;137,17500;10,70544;3
633,85795;137,65000;10,68376;3
636,21299;138,12500;10,63408;3
638,59411;138,60000;10,63187;3
640,97777;139,07500;10,62989;3
643,34515;139,55000;10,56777;3
645,73423;140,02500;10,57495;3
648,08488;140,50000;10,55898;3
650,47177;140,97500;10,55754;3
652,85322;141,45000;10,49663;3
655,23401;141,92500;10,41819;3
657,63959;142,40000;10,44489;3
660,01087;142,87500;10,41143;3
662,38412;143,35000;10,39330;3
664,75694;143,82500;10,39383;3
667,10270;144,30000;10,33908;3
669,48076;144,77500;10,31515;3
671,86487;145,25000;10,29128;3
674,23149;145,72500;10,27461;3
676,62252;146,20000;10,27053;3
679,00375;146,67500;10,19658;3
681,38421;147,15000;10,14523;3
683,74956;147,62500;10,12161;3
686,12357;148,10000;10,18697;3
688,50962;148,57500;10,13484;3
690,89004;149,05000;10,00452;3
693,26208;149,52500;10,03559;3
695,63319;150,00000; 9,96413;3
698,01503;150,47500; 9,88588;3
700,38505;150,95000; 9,85814;3
702,77040;151,42500; 9,85153;3
705,13792;151,90000; 9,73981;3
707,51565;152,37500; 9,75522;3
709,89826;152,85000; 9,67196;3
712,26998;153,32500; 9,60672;3
714,65288;153,80000; 9,63007;3
715,52667;153,97500; 9,57260;3