Folder: Bachelor-Analysis-Tools/TG_Data/Sif Data/TG TEST 4 - ISOTHERMAL 225C 20% O2

Note: README.md
# bach tools
Utilised to analyse TG data for bachelors. Structure:
```
- TG_DATA/         # directory containing TG data files, from different TGs, only "Sif" data used.
    - Sif Data/
    - Odin Data/  # Should stay unused due to difference in Odin and Sif data
    - Samlede Data/ # Combined data from multiple TGs and multiple runs
        - AiO.xlsx       # "All in one" combined data-file for fast lookups of TG graphs and comparing various TGs.
- test/
    - test_literature_arrhenius.py   # test to see if data from an academic source would result in same results using functions in tg_math
- CHNS/        # CHNS analysis data, unused after making `Characterization_Proximate_Ultimate_CHEC_EA` which was another CHNS analysis machine
- BET Data + Reports/ # Data from Anton Nova Paar800 BET analyser
- tg_math.py      # module containing mathematical functions for TG data analysis
- tg_loader.py    # module containing functions to load TG data from excel files
- tg_plotting.py  # module containing functions to plot, save & show TG data
- main.py      # main script to run analyses (Should be cleaned up...)
```

## Used math functions:
### Non-isothermal TG Data:
- `estimate_global_coats_redfern_with_o2`: Uses the model 
  - `y = ln(g(w)/T^2) = ln(A*R/(beta*Ea)) + m*ln(yO2) - Ea/R * (1/T)`
  - Estimates activation energy and pre-exponential factor using Coats-Redfern method with oxygen data, needs multiple oxygen levels to estimate the oxygen order. Fits a line to a corrected oxygen plot done by doing a vertical shift by: `y*=y-m*ln(y(O2))`. Can obviously be used for other gas-types as long as composition is known. easy to expand.
- `simulate_alpha_ramp`: Simulate conversion alpha(t) for a non-isothermal ramp using:
  - `dα/dt = k(T,yO2) * (1-α)^(solid_order)` 
  - `k = A * yO2^m_o2 * exp(-Ea/(R*T))`
- `alpha_to_mass_pct`: Convert conversion alpha to mass percentage remaining using:
  - If mass loss:
    - `alpha=(m0-m)/(m0-m_inf) -> m = m0 - alpha*(m0-m_inf)`
  - If mass gain:
    -  `alpha=(m-m0)/(m_inf-m0) -> m = m0 + alpha*(m_inf-m0)`

### Isothermal TG Data:


## Plot saving
Plots save under the folder `Plots/` when using tg_plotting functions.

File: ExpDat_BRF.csv
#EXPORTTYPE:                 ;DATA SINGLE
#FILE:                       ;BRF.ngb-dt6
#FORMAT:                     ;NETZSCH5
#FTYPE:                      ;ANSI
#IDENTITY:                   ;BRF
#DECIMAL:                    ;COMMA
#SEPARATOR:                  ;SEMICOLON
#MTYPE:                      ;TG
#INSTRUMENT:                 ;NETZSCH TG 209F3
#PROJECT:                    ;113397
#DATE/TIME:                  ;03-11-2025 20:39:36 (UTC+1)
#CORR. FILE:                 ;Correction for method ISOTHERMAL OX 225 20% O2 4H
#TEMPCAL:                    ;TCALZERO.TCX
#LABORATORY:                 ;053
#OPERATOR:                   ;ahugo
#REMARK:                     ;Initial mass: 5,475
#SAMPLE:                     ;BRF
#SAMPLE MASS /mg:            ;5,4753
#MATERIAL:                   ;BLANK
#TYPE OF CRUCIBLE:           ;Al2O3 85 µl, open
#SAMPLE CRUCIBLE MASS /mg:   ;143,8510
#REFERENCE CRUCIBLE MASS /mg:;
#M.RANGE /mg:                ;2000
#CORR. CODE:                 ;020
#RANGE:                      ;45°C....225°C/0,0....20,0K/min
#SEGMENT:                    ;S3-5/5
#SEG. 1:                     ;45°C/20,0(K/min)/105°C
#SEG. 2:                     ;105°C/00:30/105°C
#SEG. 3:                     ;105°C/5,0(K/min)/225°C
#SEG. 4:                     ;225°C/00:30/225°C
#SEG. 5:                     ;225°C/04:00/225°C

##Temp./°C;Time/min;Mass/%;Segment
104,98681; 33,00000;98,49891;3
107,34655; 34,00000;98,50235;3
111,87179; 35,00000;98,49315;3
117,26064; 36,00000;98,44572;3
122,76067; 37,00000;98,43334;3
128,20397; 38,00000;98,39670;3
133,46478; 39,00000;98,35708;3
138,65204; 40,00000;98,31814;3
143,73590; 41,00000;98,27132;3
148,81512; 42,00000;98,20072;3
153,88263; 43,00000;98,15066;3
158,90975; 44,00000;98,10857;3
163,93899; 45,00000;98,03298;3
168,97107; 46,00000;97,99090;3
173,98165; 47,00000;97,91212;3
178,98430; 48,00000;97,86292;3
183,98951; 49,00000;97,79304;3
188,98850; 50,00000;97,70184;3
193,99403; 51,00000;97,65499;3
198,99417; 52,00000;97,58723;3
203,99634; 53,00000;97,51595;3
208,99551; 54,00000;97,45091;3
214,00345; 55,00000;97,40043;3
219,00241; 56,00000;97,31503;3
224,00909; 57,00000;97,21449;4
226,40118; 58,00000;97,18894;4
226,21170; 59,00000;97,12906;4
225,64162; 60,00000;97,10546;4
225,21133; 61,00000;97,05741;4
224,97854; 62,00000;97,00429;4
224,88079; 63,00000;96,96982;4
224,85799; 64,00000;96,96296;4
224,86386; 65,00000;96,93498;4
224,87712; 66,00000;96,87038;4
224,90017; 67,00000;96,85903;4
224,92094; 68,00000;96,83141;4
224,93303; 69,00000;96,79979;4
224,94292; 70,00000;96,79132;4
224,95408; 71,00000;96,75586;4
224,96806; 72,00000;96,74399;4
224,96893; 73,00000;96,74167;4
224,97400; 74,00000;96,70119;4
224,98002; 75,00000;96,68116;4
224,97880; 76,00000;96,64277;4
224,98813; 77,00000;96,60668;4
224,99206; 78,00000;96,60677;4
224,99101; 79,00000;96,57548;4
224,99305; 80,00000;96,57008;4
224,99402; 81,00000;96,52378;4
224,99695; 82,00000;96,50319;4
224,99678; 83,00000;96,50404;4
224,99893; 84,00000;96,46811;4
225,00002; 85,00000;96,44751;4
225,00200; 86,00000;96,43317;4
225,00028; 87,00000;96,41293;5
225,37519; 88,00000;96,64386;5
225,25546; 89,00000;96,80404;5
225,07777; 90,00000;96,83857;5
224,98786; 91,00000;96,90602;5
224,95097; 92,00000;96,90252;5
224,95199; 93,00000;96,90783;5
224,96493; 94,00000;96,92444;5
224,97107; 95,00000;96,89664;5
224,98101; 96,00000;96,88608;5
224,98217; 97,00000;96,84837;5
224,98599; 98,00000;96,82519;5
224,98904; 99,00000;96,77802;5
224,99293;100,00000;96,75430;5
224,99395;101,00000;96,75619;5
224,99501;102,00000;96,70520;5
224,99292;103,00000;96,67711;5
224,99697;104,00000;96,65945;5
224,99901;105,00000;96,62713;5
224,99998;106,00000;96,59389;5
225,00088;107,00000;96,56039;5
225,00091;108,00000;96,53032;5
224,99505;109,00000;96,49331;5
224,99992;110,00000;96,44416;5
224,99897;111,00000;96,40796;5
225,00304;112,00000;96,38432;5
225,00712;113,00000;96,39256;5
225,00287;114,00000;96,31971;5
225,00399;115,00000;96,28003;5
225,00291;116,00000;96,25512;5
225,00410;117,00000;96,19627;5
225,00683;118,00000;96,18696;5
225,00211;119,00000;96,13176;5
225,00484;120,00000;96,08941;5
225,00707;121,00000;96,06244;5
225,01094;122,00000;96,02239;5
225,00701;123,00000;95,98247;5
225,00518;124,00000;95,93993;5
225,00690;125,00000;95,93570;5
225,00590;126,00000;95,86856;5
225,00500;127,00000;95,82055;5
225,00503;128,00000;95,79167;5
225,00401;129,00000;95,75389;5
225,00697;130,00000;95,72863;5
225,00410;131,00000;95,66245;5
225,00792;132,00000;95,65096;5
225,00295;133,00000;95,59098;5
225,00703;134,00000;95,57063;5
225,00198;135,00000;95,51964;5
225,00610;136,00000;95,48524;5
225,01190;137,00000;95,45361;5
225,00703;138,00000;95,40851;5
225,00598;139,00000;95,38632;5
225,00306;140,00000;95,32647;5
225,00605;141,00000;95,29917;5
225,00104;142,00000;95,25448;5
225,00897;143,00000;95,22403;5
225,00989;144,00000;95,19295;5
225,00814;145,00000;95,12554;5
225,00403;146,00000;95,07991;5
225,00793;147,00000;95,04722;5
225,00692;148,00000;94,99019;5
225,00907;149,00000;94,96805;5
225,00005;150,00000;94,90255;5
225,01093;151,00000;94,88618;5
225,00805;152,00000;94,82946;5
225,00502;153,00000;94,80226;5
225,00585;154,00000;94,75098;5
225,00894;155,00000;94,69241;5
225,00607;156,00000;94,64551;5
225,00395;157,00000;94,60284;5
225,00202;158,00000;94,55556;5
225,00509;159,00000;94,52330;5
225,00705;160,00000;94,51007;5
225,00298;161,00000;94,43066;5
225,00694;162,00000;94,41148;5
225,00790;163,00000;94,37587;5
225,00591;164,00000;94,34206;5
225,00895;165,00000;94,30372;5
225,00298;166,00000;94,23955;5
225,00592;167,00000;94,20124;5
225,00710;168,00000;94,18474;5
225,00711;169,00000;94,14311;5
225,00701;170,00000;94,10447;5
225,00416;171,00000;94,06573;5
225,00309;172,00000;94,05467;5
225,00405;173,00000;94,02204;5
225,00700;174,00000;93,98557;5
225,00788;175,00000;93,94765;5
225,00596;176,00000;93,90327;5
225,00701;177,00000;93,86296;5
225,00795;178,00000;93,84326;5
225,00511;179,00000;93,81934;5
225,00796;180,00000;93,76361;5
225,00289;181,00000;93,75341;5
225,00691;182,00000;93,72745;5
225,00812;183,00000;93,69009;5
225,00399;184,00000;93,65680;5
225,00494;185,00000;93,63350;5
225,00706;186,00000;93,58917;5
225,00301;187,00000;93,55476;5
225,01000;188,00000;93,54402;5
225,00907;189,00000;93,49402;5
225,00710;190,00000;93,46628;5
225,00704;191,00000;93,43943;5
225,00495;192,00000;93,40309;5
225,00308;193,00000;93,34795;5
225,00401;194,00000;93,32645;5
225,00592;195,00000;93,30745;5
225,00608;196,00000;93,28959;5
225,00901;197,00000;93,26462;5
225,00602;198,00000;93,23131;5
225,00299;199,00000;93,19119;5
225,00708;200,00000;93,16200;5
225,00507;201,00000;93,12553;5
225,00596;202,00000;93,10507;5
225,00693;203,00000;93,08547;5
225,00504;204,00000;93,03325;5
225,00703;205,00000;93,03116;5
225,00314;206,00000;92,98873;5
225,01025;207,00000;92,98485;5
225,00705;208,00000;92,94578;5
225,00403;209,00000;92,91188;5
225,00393;210,00000;92,88386;5
225,00704;211,00000;92,83523;5
225,00690;212,00000;92,82226;5
225,00314;213,00000;92,80405;5
225,00804;214,00000;92,78330;5
225,00808;215,00000;92,75846;5
225,00591;216,00000;92,70763;5
225,00496;217,00000;92,68845;5
225,00891;218,00000;92,69626;5
225,00911;219,00000;92,65457;5
225,00601;220,00000;92,63780;5
225,00690;221,00000;92,58615;5
225,00717;222,00000;92,57573;5
225,00309;223,00000;92,52807;5
225,00299;224,00000;92,53350;5
225,00592;225,00000;92,49183;5
225,00799;226,00000;92,46791;5
225,00689;227,00000;92,44026;5
225,00396;228,00000;92,40511;5
225,00396;229,00000;92,40180;5
225,01104;230,00000;92,38269;5
225,00393;231,00000;92,35062;5
225,00410;232,00000;92,32958;5
225,00502;233,00000;92,29456;5
225,00603;234,00000;92,26340;5
225,00384;235,00000;92,23994;5
225,00799;236,00000;92,21250;5
225,00497;237,00000;92,19644;5
225,01010;238,00000;92,17658;5
225,00395;239,00000;92,13914;5
225,00392;240,00000;92,13567;5
225,00296;241,00000;92,10995;5
225,00385;242,00000;92,09716;5
225,00400;243,00000;92,06268;5
225,00594;244,00000;92,04950;5
225,00497;245,00000;92,01677;5
225,00209;246,00000;91,98038;5
225,00405;247,00000;91,98037;5
225,00195;248,00000;91,96372;5
225,00697;249,00000;91,93064;5
225,01099;250,00000;91,91995;5
225,00584;251,00000;91,87550;5
225,00297;252,00000;91,88347;5
225,00586;253,00000;91,86688;5
225,00594;254,00000;91,83019;5
225,00706;255,00000;91,83413;5
225,00693;256,00000;91,80841;5
225,00596;257,00000;91,79207;5
225,00304;258,00000;91,75174;5
225,00505;259,00000;91,74271;5
225,00804;260,00000;91,73339;5
225,00403;261,00000;91,69717;5
225,00395;262,00000;91,68102;5
225,00798;263,00000;91,66470;5
225,00400;264,00000;91,61136;5
225,00307;265,00000;91,59365;5
225,00403;266,00000;91,57279;5
225,00188;267,00000;91,56025;5
225,00605;268,00000;91,52157;5
225,00797;269,00000;91,52155;5
225,00400;270,00000;91,48924;5
225,01002;271,00000;91,46162;5
225,00609;272,00000;91,43784;5
225,00692;273,00000;91,41269;5
225,00213;274,00000;91,39424;5
225,00509;275,00000;91,35358;5
225,00508;276,00000;91,35372;5
225,00004;277,00000;91,30467;5
225,00506;278,00000;91,30431;5
225,00610;279,00000;91,25666;5
225,00293;280,00000;91,23134;5
225,00400;281,00000;91,23640;5
225,00709;282,00000;91,18759;5
225,00793;283,00000;91,18006;5
225,00615;284,00000;91,12555;5
225,00603;285,00000;91,09848;5
225,00506;286,00000;91,11082;5
225,00797;287,00000;91,08500;5
225,00412;288,00000;91,04037;5
225,00107;289,00000;91,02196;5
225,00598;290,00000;91,02115;5
225,00494;291,00000;91,00494;5
225,00391;292,00000;90,98735;5
225,00209;293,00000;90,96869;5
225,01097;294,00000;90,94277;5

File: ExpDat_PW.csv
#EXPORTTYPE:                 ;DATA SINGLE
#FILE:                       ;PW.ngb-dt6
#FORMAT:                     ;NETZSCH5
#FTYPE:                      ;ANSI
#IDENTITY:                   ;PW
#DECIMAL:                    ;COMMA
#SEPARATOR:                  ;SEMICOLON
#MTYPE:                      ;TG
#INSTRUMENT:                 ;NETZSCH TG 209F3
#PROJECT:                    ;113397
#DATE/TIME:                  ;04-11-2025 08:40:16 (UTC+1)
#CORR. FILE:                 ;Correction for method ISOTHERMAL OX 225 20% O2 4H
#TEMPCAL:                    ;TCALZERO.TCX
#LABORATORY:                 ;053
#OPERATOR:                   ;ahugo
#REMARK:                     ;Initial mass: 5,113
#SAMPLE:                     ;PW
#SAMPLE MASS /mg:            ;5,1128
#MATERIAL:                   ;BLANK
#TYPE OF CRUCIBLE:           ;Al2O3 85 µl, open
#SAMPLE CRUCIBLE MASS /mg:   ;145,4326
#REFERENCE CRUCIBLE MASS /mg:;
#M.RANGE /mg:                ;2000
#CORR. CODE:                 ;020
#RANGE:                      ;45°C....225°C/0,0....20,0K/min
#SEGMENT:                    ;S3-5/5
#SEG. 1:                     ;45°C/20,0(K/min)/105°C
#SEG. 2:                     ;105°C/00:30/105°C
#SEG. 3:                     ;105°C/5,0(K/min)/225°C
#SEG. 4:                     ;225°C/00:30/225°C
#SEG. 5:                     ;225°C/04:00/225°C

##Temp./°C;Time/min;Mass/%;Segment
104,98380; 33,00000;99,48768;3
107,32061; 34,00000;99,48358;3
111,87046; 35,00000;99,46173;3
117,25381; 36,00000;99,44930;3
122,77216; 37,00000;99,43950;3
128,22188; 38,00000;99,43463;3
133,48920; 39,00000;99,41627;3
138,66835; 40,00000;99,40820;3
143,77735; 41,00000;99,39154;3
148,82560; 42,00000;99,37309;3
153,89292; 43,00000;99,32620;3
158,95458; 44,00000;99,33325;3
163,96279; 45,00000;99,30410;3
168,97314; 46,00000;99,27771;3
173,98003; 47,00000;99,25012;3
178,99063; 48,00000;99,23747;3
183,99804; 49,00000;99,19807;3
188,99618; 50,00000;99,14021;3
194,01295; 51,00000;99,17560;3
199,00368; 52,00000;99,09814;3
204,00213; 53,00000;99,07859;3
209,00348; 54,00000;99,06005;3
214,00871; 55,00000;99,02994;3
219,01070; 56,00000;99,00213;3
224,01862; 57,00000;98,95149;4
226,42274; 58,00000;98,93999;4
226,22911; 59,00000;98,91691;4
225,64620; 60,00000;98,88915;4
225,21580; 61,00000;98,92138;4
224,98228; 62,00000;98,86999;4
224,87992; 63,00000;98,84329;4
224,84930; 64,00000;98,82436;4
224,85706; 65,00000;98,81215;4
224,87802; 66,00000;98,81603;4
224,89805; 67,00000;98,76182;4
224,91403; 68,00000;98,77066;4
224,93296; 69,00000;98,72444;4
224,94620; 70,00000;98,71572;4
224,95402; 71,00000;98,71859;4
224,95838; 72,00000;98,67846;4
224,97307; 73,00000;98,71859;4
224,97281; 74,00000;98,66084;4
224,98102; 75,00000;98,66963;4
224,98220; 76,00000;98,62176;4
224,98605; 77,00000;98,58769;4
224,98796; 78,00000;98,59622;4
224,99206; 79,00000;98,57431;4
224,99396; 80,00000;98,55220;4
224,99602; 81,00000;98,52210;4
224,99706; 82,00000;98,51332;4
225,00183; 83,00000;98,51202;4
225,00114; 84,00000;98,45568;4
225,00010; 85,00000;98,44359;4
225,00017; 86,00000;98,42013;4
225,00419; 87,00000;98,40961;5
225,27373; 88,00000;98,62600;5
225,15446; 89,00000;98,77539;5
225,04898; 90,00000;98,86721;5
224,99391; 91,00000;98,98690;5
224,97893; 92,00000;99,02638;5
224,97392; 93,00000;99,11604;5
224,98308; 94,00000;99,17420;5
224,98590; 95,00000;99,19861;5
224,99200; 96,00000;99,23170;5
224,99206; 97,00000;99,27747;5
224,99606; 98,00000;99,36783;5
224,99503; 99,00000;99,30840;5
224,99123;100,00000;99,31002;5
224,99796;101,00000;99,39545;5
225,00392;102,00000;99,46856;5
224,99865;103,00000;99,46867;5
225,00006;104,00000;99,48805;5
225,00197;105,00000;99,51334;5
225,00518;106,00000;99,52653;5
225,00305;107,00000;99,55250;5
225,00091;108,00000;99,52504;5
225,00500;109,00000;99,58885;5
225,00197;110,00000;99,56198;5
224,99987;111,00000;99,58608;5
225,00226;112,00000;99,60159;5
225,00028;113,00000;99,66961;5
225,00089;114,00000;99,60671;5
225,00531;115,00000;99,66252;5
225,00488;116,00000;99,68112;5
225,00483;117,00000;99,70943;5
225,00414;118,00000;99,70153;5
225,00419;119,00000;99,69205;5
225,00524;120,00000;99,70844;5
225,00030;121,00000;99,68461;5
225,00398;122,00000;99,76690;5
225,00118;123,00000;99,74568;5
225,00500;124,00000;99,75758;5
225,00691;125,00000;99,79138;5
225,00688;126,00000;99,73531;5
225,00603;127,00000;99,71654;5
225,00892;128,00000;99,78447;5
225,00507;129,00000;99,78869;5
225,00509;130,00000;99,78637;5
225,00683;131,00000;99,76402;5
225,00694;132,00000;99,80047;5
225,00599;133,00000;99,77714;5
225,00313;134,00000;99,84114;5
225,00505;135,00000;99,79264;5
225,00888;136,00000;99,82141;5
225,00425;137,00000;99,79497;5
225,00392;138,00000;99,80124;5
225,00604;139,00000;99,81679;5
225,00513;140,00000;99,80911;5
225,00389;141,00000;99,79588;5
225,00403;142,00000;99,80101;5
225,00887;143,00000;99,85692;5
225,00689;144,00000;99,81809;5
225,00606;145,00000;99,80800;5
225,01120;146,00000;99,80481;5
225,00805;147,00000;99,79840;5
225,00295;148,00000;99,78853;5
225,01097;149,00000;99,81770;5
225,00612;150,00000;99,77158;5
225,00404;151,00000;99,75067;5
225,00503;152,00000;99,79245;5
225,00707;153,00000;99,74592;5
225,01109;154,00000;99,76940;5
225,00680;155,00000;99,75856;5
225,00583;156,00000;99,74963;5
225,00288;157,00000;99,73455;5
225,00802;158,00000;99,73389;5
225,00572;159,00000;99,70321;5
225,00802;160,00000;99,74792;5
225,00597;161,00000;99,70219;5
225,00799;162,00000;99,70035;5
225,01090;163,00000;99,73361;5
225,01181;164,00000;99,75774;5
225,00877;165,00000;99,68257;5
225,00605;166,00000;99,69725;5
225,00604;167,00000;99,66621;5
225,00783;168,00000;99,68271;5
225,00501;169,00000;99,64965;5
225,00794;170,00000;99,65870;5
225,00688;171,00000;99,63017;5
225,00685;172,00000;99,65207;5
225,00686;173,00000;99,63750;5
225,00827;174,00000;99,66164;5
225,01095;175,00000;99,64634;5
225,00413;176,00000;99,62792;5
225,00502;177,00000;99,64125;5
225,00231;178,00000;99,53044;5
225,00527;179,00000;99,59756;5
225,01203;180,00000;99,58998;5
225,00969;181,00000;99,66846;5
225,00885;182,00000;99,61854;5
225,00492;183,00000;99,60002;5
225,00900;184,00000;99,62082;5
225,00398;185,00000;99,59808;5
225,00406;186,00000;99,58522;5
225,00806;187,00000;99,58929;5
225,00901;188,00000;99,59520;5
225,00995;189,00000;99,58536;5
225,01091;190,00000;99,58338;5
225,00720;191,00000;99,58857;5
225,00768;192,00000;99,56883;5
225,00917;193,00000;99,56117;5
225,00792;194,00000;99,54032;5
225,00223;195,00000;99,49139;5
225,00689;196,00000;99,55346;5
225,00583;197,00000;99,51881;5
225,00308;198,00000;99,54567;5
225,00690;199,00000;99,53484;5
225,00906;200,00000;99,53676;5
225,01106;201,00000;99,53785;5
225,00983;202,00000;99,53175;5
225,00720;203,00000;99,52850;5
225,00622;204,00000;99,52229;5
225,00603;205,00000;99,50577;5
225,00596;206,00000;99,49077;5
225,00403;207,00000;99,49641;5
224,99794;208,00000;99,44115;5
225,00419;209,00000;99,48706;5
225,01100;210,00000;99,52054;5
225,00706;211,00000;99,46897;5
225,00473;212,00000;99,45905;5
225,00682;213,00000;99,48894;5
225,00498;214,00000;99,46139;5
225,00603;215,00000;99,48974;5
225,01111;216,00000;99,48325;5
225,00891;217,00000;99,45381;5
225,00691;218,00000;99,50263;5
225,00817;219,00000;99,46442;5
225,00991;220,00000;99,49707;5
225,00394;221,00000;99,44965;5
225,00507;222,00000;99,49528;5
225,00084;223,00000;99,43029;5
225,00297;224,00000;99,44983;5
225,00780;225,00000;99,44976;5
225,00512;226,00000;99,43528;5
225,00480;227,00000;99,45988;5
225,00706;228,00000;99,46792;5
225,00765;229,00000;99,45832;5
225,00788;230,00000;99,49163;5
225,00712;231,00000;99,43515;5
225,00989;232,00000;99,45153;5
225,00777;233,00000;99,42922;5
225,00707;234,00000;99,44353;5
225,00513;235,00000;99,43467;5
225,00604;236,00000;99,43425;5
225,00378;237,00000;99,42769;5
225,00686;238,00000;99,43324;5
224,99818;239,00000;99,38261;5
225,01085;240,00000;99,42874;5
225,01010;241,00000;99,44819;5
225,00815;242,00000;99,42748;5
225,00894;243,00000;99,43948;5
225,00493;244,00000;99,43376;5
224,99867;245,00000;99,36310;5
225,00883;246,00000;99,44052;5
225,00692;247,00000;99,43286;5
225,00180;248,00000;99,45741;5
225,00264;249,00000;99,43003;5
225,00109;250,00000;99,39513;5
225,00810;251,00000;99,46253;5
225,00494;252,00000;99,46157;5
225,00683;253,00000;99,46175;5
225,00300;254,00000;99,47030;5
225,00495;255,00000;99,48558;5
224,99723;256,00000;99,37048;5
224,99982;257,00000;99,46675;5
225,00604;258,00000;99,39414;5
225,00683;259,00000;99,47723;5
225,00819;260,00000;99,46760;5
225,00993;261,00000;99,45749;5
225,00786;262,00000;99,45390;5
225,00793;263,00000;99,46122;5
225,00398;264,00000;99,40534;5
225,00816;265,00000;99,44541;5
225,00808;266,00000;99,42988;5
225,00486;267,00000;99,45969;5
225,00597;268,00000;99,45876;5
225,00906;269,00000;99,45618;5
225,00208;270,00000;99,43241;5
225,00498;271,00000;99,44568;5
225,00707;272,00000;99,45335;5
225,00486;273,00000;99,43275;5
225,00695;274,00000;99,41540;5
225,00198;275,00000;99,37399;5
225,00392;276,00000;99,42454;5
225,00208;277,00000;99,40217;5
225,00619;278,00000;99,41870;5
225,01216;279,00000;99,38867;5
225,01194;280,00000;99,38783;5
225,00785;281,00000;99,40692;5
225,00885;282,00000;99,41040;5
225,00380;283,00000;99,40716;5
225,00308;284,00000;99,38842;5
225,00709;285,00000;99,38867;5
225,00905;286,00000;99,41535;5
225,00293;287,00000;99,43866;5
225,00034;288,00000;99,42991;5
225,00004;289,00000;99,44614;5
225,00190;290,00000;99,48515;5
225,00702;291,00000;99,45038;5
225,00388;292,00000;99,46006;5
225,00236;293,00000;99,49316;5
225,00306;294,00000;99,43318;5

File: ExpDat_WS.csv
#EXPORTTYPE:                 ;DATA SINGLE
#FILE:                       ;WS.ngb-dt6
#FORMAT:                     ;NETZSCH5
#FTYPE:                      ;ANSI
#IDENTITY:                   ;WS
#DECIMAL:                    ;COMMA
#SEPARATOR:                  ;SEMICOLON
#MTYPE:                      ;TG
#INSTRUMENT:                 ;NETZSCH TG 209F3
#PROJECT:                    ;113397
#DATE/TIME:                  ;04-11-2025 02:40:05 (UTC+1)
#CORR. FILE:                 ;Correction for method ISOTHERMAL OX 225 20% O2 4H
#TEMPCAL:                    ;TCALZERO.TCX
#LABORATORY:                 ;053
#OPERATOR:                   ;ahugo
#REMARK:                     ;Initial mass: 4,738
#SAMPLE:                     ;WS
#SAMPLE MASS /mg:            ;4,7378
#MATERIAL:                   ;BLANK
#TYPE OF CRUCIBLE:           ;Al2O3 85 µl, open
#SAMPLE CRUCIBLE MASS /mg:   ;144,9061
#REFERENCE CRUCIBLE MASS /mg:;
#M.RANGE /mg:                ;2000
#CORR. CODE:                 ;020
#RANGE:                      ;45°C....225°C/0,0....20,0K/min
#SEGMENT:                    ;S3-5/5
#SEG. 1:                     ;45°C/20,0(K/min)/105°C
#SEG. 2:                     ;105°C/00:30/105°C
#SEG. 3:                     ;105°C/5,0(K/min)/225°C
#SEG. 4:                     ;225°C/00:30/225°C
#SEG. 5:                     ;225°C/04:00/225°C

##Temp./°C;Time/min;Mass/%;Segment
200,54675; 52,31000;97,27524;3
213,05373; 54,81000;97,12699;3
225,30648; 57,31000;96,95088;4
225,74837; 59,81000;96,80398;4
224,93632; 62,31000;96,73116;4
224,85964; 64,81000;96,63719;4
224,90688; 67,31000;96,55234;4
224,94248; 69,81000;96,42709;4
224,96731; 72,31000;96,37335;4
224,98019; 74,81000;96,29468;4
224,98423; 77,31000;96,18736;4
224,99089; 79,81000;96,09252;4
224,99264; 82,31000;96,04175;4
224,99326; 84,81000;95,96520;4
225,08226; 87,31000;95,91129;5
225,06706; 89,81000;96,22257;5
224,96556; 92,31000;96,25892;5
224,98380; 94,81000;96,26887;5
224,99259; 97,31000;96,24743;5
224,99629; 99,81000;96,20604;5
224,99613;102,31000;96,19072;5
225,00121;104,81000;96,15457;5
225,00256;107,31000;96,14474;5
224,99898;109,81000;96,07940;5
225,00181;112,31000;96,08534;5
225,00108;114,81000;96,03048;5
225,00326;117,31000;95,98986;5
225,00407;119,81000;95,95780;5
225,00054;122,31000;95,93849;5
225,00584;124,81000;95,89505;5
225,00551;127,31000;95,85612;5
225,00497;129,81000;95,82614;5
225,00442;132,31000;95,78287;5
225,00479;134,81000;95,74013;5
225,00050;137,31000;95,72504;5
225,00380;139,81000;95,69402;5
225,00815;142,31000;95,64842;5
225,00080;144,81000;95,62051;5
225,00763;147,31000;95,59411;5
225,00696;149,81000;95,51287;5
225,00919;152,31000;95,46335;5
225,00226;154,81000;95,43446;5
225,00685;157,31000;95,39068;5
225,00321;159,81000;95,33787;5
225,00607;162,31000;95,29471;5
225,00147;164,81000;95,25173;5
225,00579;167,31000;95,19743;5
225,00591;169,81000;95,18293;5
225,00341;172,31000;95,11450;5
225,00482;174,81000;95,09978;5
225,00230;177,31000;95,04666;5
225,00662;179,81000;95,04530;5
225,00439;182,31000;95,00755;5
225,00627;184,81000;94,97617;5
225,00556;187,31000;94,93544;5
225,00782;189,81000;94,91451;5
225,00289;192,31000;94,86540;5
225,00885;194,81000;94,87621;5
225,00780;197,31000;94,81557;5
225,00386;199,81000;94,80468;5
225,00584;202,31000;94,77791;5
225,00836;204,81000;94,75382;5
225,00712;207,31000;94,72417;5
225,00801;209,81000;94,69708;5
225,00799;212,31000;94,64001;5
225,00653;214,81000;94,61865;5
225,00370;217,31000;94,58964;5
225,00168;219,81000;94,58534;5
225,00649;222,31000;94,55097;5
224,99992;224,81000;94,53866;5
225,00631;227,31000;94,48648;5
225,00359;229,81000;94,46394;5
225,00601;232,31000;94,42825;5
225,00593;234,81000;94,41046;5
225,00864;237,31000;94,37490;5
225,00541;239,81000;94,34078;5
225,00366;242,31000;94,34192;5
225,00592;244,81000;94,32692;5
225,00426;247,31000;94,28849;5
225,00454;249,81000;94,28342;5
225,00960;252,31000;94,25688;5
225,00448;254,81000;94,24242;5
225,00443;257,31000;94,20927;5
225,00499;259,81000;94,18355;5
225,00618;262,31000;94,16111;5
225,00791;264,81000;94,12647;5
225,00412;267,31000;94,09879;5
225,00773;269,81000;94,05593;5
225,00416;272,31000;94,01063;5