Folder: Bachelor-Analysis-Tools/TG_Data/Sif Data/TG TEST 3 - ISOTHERMAL 250C 20% O2

Note: README.md
# bach tools
Utilised to analyse TG data for bachelors. Structure:
```
- TG_DATA/         # directory containing TG data files, from different TGs, only "Sif" data used.
    - Sif Data/
    - Odin Data/  # Should stay unused due to difference in Odin and Sif data
    - Samlede Data/ # Combined data from multiple TGs and multiple runs
        - AiO.xlsx       # "All in one" combined data-file for fast lookups of TG graphs and comparing various TGs.
- test/
    - test_literature_arrhenius.py   # test to see if data from an academic source would result in same results using functions in tg_math
- CHNS/        # CHNS analysis data, unused after making `Characterization_Proximate_Ultimate_CHEC_EA` which was another CHNS analysis machine
- BET Data + Reports/ # Data from Anton Nova Paar800 BET analyser
- tg_math.py      # module containing mathematical functions for TG data analysis
- tg_loader.py    # module containing functions to load TG data from excel files
- tg_plotting.py  # module containing functions to plot, save & show TG data
- main.py      # main script to run analyses (Should be cleaned up...)
```

## Used math functions:
### Non-isothermal TG Data:
- `estimate_global_coats_redfern_with_o2`: Uses the model 
  - `y = ln(g(w)/T^2) = ln(A*R/(beta*Ea)) + m*ln(yO2) - Ea/R * (1/T)`
  - Estimates activation energy and pre-exponential factor using Coats-Redfern method with oxygen data, needs multiple oxygen levels to estimate the oxygen order. Fits a line to a corrected oxygen plot done by doing a vertical shift by: `y*=y-m*ln(y(O2))`. Can obviously be used for other gas-types as long as composition is known. easy to expand.
- `simulate_alpha_ramp`: Simulate conversion alpha(t) for a non-isothermal ramp using:
  - `dα/dt = k(T,yO2) * (1-α)^(solid_order)` 
  - `k = A * yO2^m_o2 * exp(-Ea/(R*T))`
- `alpha_to_mass_pct`: Convert conversion alpha to mass percentage remaining using:
  - If mass loss:
    - `alpha=(m0-m)/(m0-m_inf) -> m = m0 - alpha*(m0-m_inf)`
  - If mass gain:
    -  `alpha=(m-m0)/(m_inf-m0) -> m = m0 + alpha*(m_inf-m0)`

### Isothermal TG Data:


## Plot saving
Plots save under the folder `Plots/` when using tg_plotting functions.

File: ExpDat_BRF 500.csv
#EXPORTTYPE:                 ;DATA SINGLE
#FILE:                       ;BRF 500.ngb-dt6
#FORMAT:                     ;NETZSCH5
#FTYPE:                      ;ANSI
#IDENTITY:                   ;BRF500
#DECIMAL:                    ;COMMA
#SEPARATOR:                  ;SEMICOLON
#MTYPE:                      ;TG
#INSTRUMENT:                 ;NETZSCH TG 209F3
#PROJECT:                    ;113397
#DATE/TIME:                  ;31-10-2025 23:54:11 (UTC+1)
#CORR. FILE:                 ;Correction for method CHAR ISOTHERMAL 10H 250C 20% O2
#TEMPCAL:                    ;TCALZERO.TCX
#LABORATORY:                 ;053
#OPERATOR:                   ;ahugo
#REMARK:                     ;Initial mass: 5,215
#SAMPLE:                     ;BRF500
#SAMPLE MASS /mg:            ;5,2152
#MATERIAL:                   ;empty
#TYPE OF CRUCIBLE:           ;Al2O3 85 µl, open
#SAMPLE CRUCIBLE MASS /mg:   ;146,7443
#REFERENCE CRUCIBLE MASS /mg:;
#M.RANGE /mg:                ;2000
#CORR. CODE:                 ;020
#RANGE:                      ;45°C....250°C/0,0....40,0K/min
#SEGMENT:                    ;S4-5/5
#SEG. 1:                     ;45°C/40,0(K/min)/105°C
#SEG. 2:                     ;105°C/00:30/105°C
#SEG. 3:                     ;105°C/5,0(K/min)/250°C
#SEG. 4:                     ;250°C/00:30/250°C
#SEG. 5:                     ;250°C/10:00/250°C

##Temp./°C;Time/min;Mass/%;Segment
249,90705; 70,00000;95,16413;4
249,94300; 72,50000;95,07968;4
249,96999; 75,00000;95,01430;4
249,97300; 77,50000;94,92450;4
249,98899; 80,00000;94,85354;4
249,99003; 82,50000;94,77289;4
249,99701; 85,00000;94,70775;4
249,99901; 87,50000;94,66169;4
250,00201; 90,00000;94,58486;4
250,35082; 92,50000;95,03190;5
249,94198; 95,00000;95,05271;5
249,93805; 97,50000;94,95510;5
249,96902;100,00000;94,83052;5
249,98602;102,50000;94,69428;5
249,98902;105,00000;94,55263;5
249,99401;107,50000;94,40657;5
249,99804;110,00000;94,25135;5
249,99899;112,50000;94,10768;5
249,99400;115,00000;93,95782;5
250,00400;117,50000;93,81989;5
249,99795;120,00000;93,66846;5
250,00299;122,50000;93,53612;5
249,99899;125,00000;93,38267;5
249,99798;127,50000;93,22172;5
249,99701;130,00000;93,07207;5
249,99600;132,50000;92,94752;5
249,99802;135,00000;92,81518;5
250,00099;137,50000;92,65609;5
250,00296;140,00000;92,53326;5
250,00301;142,50000;92,40484;5
250,00502;145,00000;92,28999;5
250,00101;147,50000;92,12104;5
250,00200;150,00000;91,98675;5
250,00598;152,50000;91,85461;5
250,00704;155,00000;91,74341;5
250,00301;157,50000;91,60331;5
250,00803;160,00000;91,47488;5
250,00200;162,50000;91,34839;5
249,99497;165,00000;91,21624;5
250,00502;167,50000;91,08548;5
250,00399;170,00000;90,97063;5
250,00601;172,50000;90,86317;5
249,99500;175,00000;90,75380;5
250,00599;177,50000;90,60436;5
250,00699;180,00000;90,54304;5
250,00297;182,50000;90,41825;5
250,00002;185,00000;90,28226;5
250,00600;187,50000;90,19591;5
250,00699;190,00000;90,06937;5
250,00299;192,50000;89,96213;5
250,00704;195,00000;89,85646;5
250,00699;197,50000;89,74910;5
250,00996;200,00000;89,62639;5
250,00202;202,50000;89,52301;5
250,00496;205,00000;89,40586;5
250,00402;207,50000;89,28922;5
250,00905;210,00000;89,20268;5
250,00500;212,50000;89,08375;5
250,00602;215,00000;88,97457;5
250,00797;217,50000;88,88632;5
250,00500;220,00000;88,76354;5
250,00302;222,50000;88,66007;5
250,00703;225,00000;88,55456;5
250,00502;227,50000;88,42206;5
250,00193;230,00000;88,33403;5
250,00598;232,50000;88,23041;5
250,00699;235,00000;88,11171;5
250,00802;237,50000;88,02161;5
250,00102;240,00000;87,91224;5
250,00702;242,50000;87,79534;5
250,00902;245,00000;87,70130;5
250,01102;247,50000;87,58438;5
250,01102;250,00000;87,45009;5
250,00002;252,50000;87,37926;5
250,00795;255,00000;87,26408;5
249,99998;257,50000;87,14517;5
250,00802;260,00000;87,08391;5
250,00599;262,50000;86,94207;5
250,00598;265,00000;86,85192;5
250,00396;267,50000;86,76936;5
250,00501;270,00000;86,65236;5
249,99895;272,50000;86,55657;5
249,99994;275,00000;86,45881;5
250,00402;277,50000;86,36464;5
250,00802;280,00000;86,24024;5
250,00000;282,50000;86,17101;5
250,01201;285,00000;86,08887;5
250,00302;287,50000;85,97562;5
250,00798;290,00000;85,90459;5
250,00702;292,50000;85,82225;5
250,00002;295,00000;85,72053;5
250,00303;297,50000;85,61903;5
250,00505;300,00000;85,53287;5
250,00093;302,50000;85,42724;5
250,00403;305,00000;85,35249;5
250,00300;307,50000;85,28532;5
250,00396;310,00000;85,19323;5
250,00499;312,50000;85,11252;5
250,00798;315,00000;85,05148;5
250,00498;317,50000;84,95739;5
250,01001;320,00000;84,88445;5
250,00196;322,50000;84,80584;5
250,00902;325,00000;84,72926;5
250,00397;327,50000;84,63524;5
250,00700;330,00000;84,55854;5
250,00597;332,50000;84,48400;5
250,00100;335,00000;84,40319;5
250,00402;337,50000;84,31893;5
250,00699;340,00000;84,24406;5
250,00405;342,50000;84,17313;5
249,99999;345,00000;84,08294;5
250,00799;347,50000;83,99879;5
250,00600;350,00000;83,93929;5
250,00603;352,50000;83,87001;5
250,00804;355,00000;83,78016;5
250,00602;357,50000;83,71869;5
250,00704;360,00000;83,63249;5
250,00300;362,50000;83,55764;5
250,00095;365,00000;83,49059;5
250,00797;367,50000;83,41362;5
250,00399;370,00000;83,32371;5
250,00399;372,50000;83,24702;5
250,00897;375,00000;83,15505;5
250,00298;377,50000;83,08794;5
250,00899;380,00000;83,02083;5
250,01096;382,50000;82,92869;5
250,00402;385,00000;82,85777;5
250,00399;387,50000;82,76962;5
250,00400;390,00000;82,67944;5
250,00603;392,50000;82,60661;5
250,00597;395,00000;82,53570;5
250,00199;397,50000;82,46291;5
250,00202;400,00000;82,37652;5
250,00702;402,50000;82,30180;5
250,00401;405,00000;82,22505;5
250,00795;407,50000;82,15589;5
250,00198;410,00000;82,07538;5
250,00494;412,50000;82,01396;5
250,00500;415,00000;81,92953;5
250,00997;417,50000;81,86258;5
250,00403;420,00000;81,78975;5
250,00404;422,50000;81,69953;5
250,00099;425,00000;81,64016;5
250,00298;427,50000;81,55784;5
250,00498;430,00000;81,48869;5
249,99801;432,50000;81,40051;5
250,00701;435,00000;81,35643;5
250,00303;437,50000;81,27380;5
250,00706;440,00000;81,19726;5
250,00298;442,50000;81,12248;5
250,00294;445,00000;81,06492;5
250,00801;447,50000;80,98438;5
250,00801;450,00000;80,91152;5
250,00502;452,50000;80,80025;5
250,00605;455,00000;80,75820;5
250,00495;457,50000;80,68530;5
250,00197;460,00000;80,62022;5
250,00398;462,50000;80,56058;5
249,99897;465,00000;80,48592;5
250,00503;467,50000;80,40541;5
250,00700;470,00000;80,33262;5
250,00695;472,50000;80,25945;5
250,00301;475,00000;80,18868;5
250,00400;477,50000;80,13124;5
250,00698;480,00000;80,05821;5
250,01097;482,50000;80,00090;5
250,00201;485,00000;79,93167;5
250,00498;487,50000;79,86466;5
250,00799;490,00000;79,79566;5
250,00700;492,50000;79,72662;5
250,00399;495,00000;79,67479;5
250,00300;497,50000;79,60570;5
250,01298;500,00000;79,57320;5
250,00600;502,50000;79,50039;5
250,00697;505,00000;79,43519;5
250,00301;507,50000;79,37570;5
250,00600;510,00000;79,31990;5
249,99998;512,50000;79,24522;5
250,00698;515,00000;79,21073;5
250,00302;517,50000;79,15330;5
250,00302;520,00000;79,08417;5
250,01399;522,50000;79,04770;5
249,99902;525,00000;78,96156;5
250,00798;527,50000;78,91930;5
250,00498;530,00000;78,87714;5
250,00995;532,50000;78,81199;5
250,00202;535,00000;78,74493;5
250,00796;537,50000;78,69871;5
250,00704;540,00000;78,65292;5
250,00700;542,50000;78,58954;5
250,00703;545,00000;78,54732;5
250,00795;547,50000;78,50124;5
250,00595;550,00000;78,43035;5
250,00701;552,50000;78,39577;5
250,00699;555,00000;78,35170;5
250,00601;557,50000;78,28278;5
250,00299;560,00000;78,22890;5
250,00599;562,50000;78,20579;5
250,00798;565,00000;78,15802;5
250,00404;567,50000;78,07760;5
250,00399;570,00000;78,04489;5
250,01200;572,50000;78,00077;5
250,00000;575,00000;77,92025;5
250,00705;577,50000;77,88969;5
250,01104;580,00000;77,83969;5
250,00402;582,50000;77,78806;5
250,00398;585,00000;77,73616;5
250,00101;587,50000;77,70749;5
250,01101;590,00000;77,65368;5
250,00400;592,50000;77,61172;5
250,00902;595,00000;77,56751;5
250,00597;597,50000;77,51959;5
250,00404;600,00000;77,47731;5
250,00104;602,50000;77,42948;5
250,00398;605,00000;77,39502;5
250,00500;607,50000;77,35090;5
250,00597;610,00000;77,30488;5
250,00998;612,50000;77,27603;5
250,00602;615,00000;77,22410;5
250,00197;617,50000;77,15896;5
250,00999;620,00000;77,12651;5
250,00399;622,50000;77,07473;5

File: ExpDat_PW500.csv
#EXPORTTYPE:                 ;DATA SINGLE
#FILE:                       ;PW500.ngb-dt6
#FORMAT:                     ;NETZSCH5
#FTYPE:                      ;ANSI
#IDENTITY:                   ;PW500
#DECIMAL:                    ;COMMA
#SEPARATOR:                  ;SEMICOLON
#MTYPE:                      ;TG
#INSTRUMENT:                 ;NETZSCH TG 209F3
#PROJECT:                    ;113397
#DATE/TIME:                  ;02-11-2025 00:04:51 (UTC+1)
#CORR. FILE:                 ;Correction for method CHAR ISOTHERMAL 10H 250C 20% O2
#TEMPCAL:                    ;TCALZERO.TCX
#LABORATORY:                 ;053
#OPERATOR:                   ;ahugo
#REMARK:                     ;Initial mass: 4,843
#SAMPLE:                     ;PW500
#SAMPLE MASS /mg:            ;4,8429
#MATERIAL:                   ;empty
#TYPE OF CRUCIBLE:           ;Al2O3 85 µl, open
#SAMPLE CRUCIBLE MASS /mg:   ;147,9721
#REFERENCE CRUCIBLE MASS /mg:;
#M.RANGE /mg:                ;2000
#CORR. CODE:                 ;020
#RANGE:                      ;45°C....250°C/0,0....40,0K/min
#SEGMENT:                    ;S2-5/5
#SEG. 1:                     ;45°C/40,0(K/min)/105°C
#SEG. 2:                     ;105°C/00:30/105°C
#SEG. 3:                     ;105°C/5,0(K/min)/250°C
#SEG. 4:                     ;250°C/00:30/250°C
#SEG. 5:                     ;250°C/10:00/250°C

##Temp./°C;Time/min;Mass/%;Segment
104,80405; 17,00000;99,13049;2
104,83710; 18,00000;99,10587;2
104,86099; 19,00000;99,07065;2
104,87410; 20,00000;99,02927;2
104,89705; 21,00000;99,01725;2
104,90898; 22,00000;98,98154;2
104,92915; 23,00000;98,96774;2
104,93708; 24,00000;98,93642;2
104,94910; 25,00000;98,91554;2
104,95619; 26,00000;98,87474;2
104,96722; 27,00000;98,87046;2
104,97118; 28,00000;98,82915;2
104,97123; 29,00000;98,80840;2
104,97526; 30,00000;98,77562;2
104,97823; 31,00000;98,76685;2
105,78746; 32,00000;98,73442;3
109,42040; 33,00000;98,69545;3
114,48238; 34,00000;98,67003;3
119,96536; 35,00000;98,62694;3
125,46542; 36,00000;98,58528;3
130,82403; 37,00000;98,56284;3
136,04397; 38,00000;98,53700;3
141,16953; 39,00000;98,48217;3
146,28374; 40,00000;98,46332;3
151,32672; 41,00000;98,43064;3
156,37310; 42,00000;98,36875;3
161,42752; 43,00000;98,31805;3
166,46038; 44,00000;98,27380;3
171,46893; 45,00000;98,24714;3
176,46882; 46,00000;98,20770;3
181,48600; 47,00000;98,16132;3
186,48942; 48,00000;98,09616;3
191,48396; 49,00000;98,04962;3
196,48641; 50,00000;98,00489;3
201,49114; 51,00000;97,98700;3
206,49305; 52,00000;97,93593;3
211,49397; 53,00000;97,90574;3
216,49587; 54,00000;97,83806;3
221,50073; 55,00000;97,80228;3
226,50870; 56,00000;97,76578;3
231,51551; 57,00000;97,68940;3
236,52538; 58,00000;97,65794;3
241,53350; 59,00000;97,61701;3
246,54024; 60,00000;97,56771;3
250,81549; 61,00000;97,53218;4
251,37543; 62,00000;97,49543;4
250,86006; 63,00000;97,45005;4
250,36331; 64,00000;97,39842;4
250,05761; 65,00000;97,36313;4
249,92478; 66,00000;97,34261;4
249,87301; 67,00000;97,31767;4
249,86618; 68,00000;97,27613;4
249,87897; 69,00000;97,23739;4
249,90903; 70,00000;97,20200;4
249,92496; 71,00000;97,16490;4
249,93406; 72,00000;97,12774;4
249,95095; 73,00000;97,11954;4
249,95400; 74,00000;97,09479;4
249,95995; 75,00000;97,08399;4
249,96910; 76,00000;97,05309;4
249,97982; 77,00000;97,01666;4
249,98100; 78,00000;96,97701;4
249,98904; 79,00000;96,95787;4
249,98799; 80,00000;96,93561;4
249,99008; 81,00000;96,91493;4
249,99307; 82,00000;96,87174;4
249,99096; 83,00000;96,85914;4
249,99299; 84,00000;96,84701;4
249,99400; 85,00000;96,79319;4
249,99593; 86,00000;96,76462;4
249,99700; 87,00000;96,75423;4
249,99909; 88,00000;96,72323;4
249,99598; 89,00000;96,69188;4
250,00099; 90,00000;96,68160;4
250,24408; 91,00000;96,74853;5
250,30961; 92,00000;97,04146;5
250,13079; 93,00000;97,23752;5
250,02287; 94,00000;97,38226;5
249,97397; 95,00000;97,48871;5
249,96594; 96,00000;97,59305;5
249,96693; 97,00000;97,66704;5
249,97404; 98,00000;97,77641;5
249,98611; 99,00000;97,83388;5
249,98702;100,00000;97,90873;5
249,98709;101,00000;97,94362;5
249,99501;102,00000;97,98470;5
249,99401;103,00000;98,03480;5
249,99105;104,00000;98,07558;5
249,99404;105,00000;98,12987;5
250,00296;106,00000;98,18270;5
249,99203;107,00000;98,19327;5
249,99699;108,00000;98,24493;5
249,99995;109,00000;98,27175;5
250,00098;110,00000;98,27768;5
249,99702;111,00000;98,31916;5
249,99800;112,00000;98,33805;5
250,00195;113,00000;98,35613;5
250,00000;114,00000;98,38964;5
249,99797;115,00000;98,40784;5
250,00002;116,00000;98,43662;5
249,99891;117,00000;98,44912;5
250,00496;118,00000;98,48448;5
250,00203;119,00000;98,48659;5
250,00292;120,00000;98,50885;5
250,00501;121,00000;98,52766;5
250,00195;122,00000;98,54412;5
250,00301;123,00000;98,55726;5
250,00096;124,00000;98,57134;5
249,99989;125,00000;98,58343;5
250,00603;126,00000;98,59162;5
250,00501;127,00000;98,59148;5
250,00098;128,00000;98,60639;5
250,00200;129,00000;98,62303;5
249,99905;130,00000;98,62881;5
250,00316;131,00000;98,64782;5
249,99901;132,00000;98,66385;5
250,00194;133,00000;98,64151;5
250,00401;134,00000;98,67209;5
250,00186;135,00000;98,68260;5
250,00599;136,00000;98,68039;5
250,00696;137,00000;98,69702;5
250,00399;138,00000;98,69085;5
249,99891;139,00000;98,72791;5
250,00402;140,00000;98,71946;5
250,00208;141,00000;98,74063;5
250,00293;142,00000;98,72360;5
250,00801;143,00000;98,74017;5
250,00392;144,00000;98,72810;5
250,00189;145,00000;98,76136;5
250,00505;146,00000;98,74698;5
250,00399;147,00000;98,73629;5
250,00596;148,00000;98,75297;5
250,00701;149,00000;98,73648;5
250,00694;150,00000;98,75680;5
250,00309;151,00000;98,76328;5
250,00302;152,00000;98,75510;5
250,00497;153,00000;98,75049;5
250,00004;154,00000;98,77926;5

File: ExpDat_WS500.csv
#EXPORTTYPE:                 ;DATA SINGLE
#FILE:                       ;WS500.ngb-dt6
#FORMAT:                     ;NETZSCH5
#FTYPE:                      ;ANSI
#IDENTITY:                   ;WS500
#DECIMAL:                    ;COMMA
#SEPARATOR:                  ;SEMICOLON
#MTYPE:                      ;TG
#INSTRUMENT:                 ;NETZSCH TG 209F3
#PROJECT:                    ;113397
#DATE/TIME:                  ;01-11-2025 11:59:41 (UTC+1)
#CORR. FILE:                 ;Correction for method CHAR ISOTHERMAL 10H 250C 20% O2
#TEMPCAL:                    ;TCALZERO.TCX
#LABORATORY:                 ;053
#OPERATOR:                   ;ahugo
#REMARK:                     ;Initial mass: 4,984
#SAMPLE:                     ;WS500
#SAMPLE MASS /mg:            ;4,9844
#MATERIAL:                   ;empty
#TYPE OF CRUCIBLE:           ;Al2O3 85 µl, open
#SAMPLE CRUCIBLE MASS /mg:   ;144,7566
#REFERENCE CRUCIBLE MASS /mg:;
#M.RANGE /mg:                ;2000
#CORR. CODE:                 ;020
#RANGE:                      ;45°C....250°C/0,0....40,0K/min
#SEGMENT:                    ;S4-5/5
#SEG. 1:                     ;45°C/40,0(K/min)/105°C
#SEG. 2:                     ;105°C/00:30/105°C
#SEG. 3:                     ;105°C/5,0(K/min)/250°C
#SEG. 4:                     ;250°C/00:30/250°C
#SEG. 5:                     ;250°C/10:00/250°C

##Temp./°C;Time/min;Mass/%;Segment
249,90800; 70,00000;96,32253;4
249,93902; 72,50000;96,25408;4
249,96700; 75,00000;96,22413;4
249,97398; 77,50000;96,12579;4
249,99501; 80,00000;96,06372;4
249,99599; 82,50000;95,98128;4
249,99800; 85,00000;95,93532;4
249,99404; 87,50000;95,89732;4
250,00200; 90,00000;95,84684;4
250,26179; 92,50000;96,26242;5
249,94597; 95,00000;96,40255;5
249,95900; 97,50000;96,46901;5
249,97391;100,00000;96,47501;5
249,98898;102,50000;96,42470;5
250,00203;105,00000;96,42704;5
249,99998;107,50000;96,39258;5
249,99502;110,00000;96,31450;5
250,00597;112,50000;96,30450;5
250,00000;115,00000;96,24613;5
249,99502;117,50000;96,20029;5
250,00300;120,00000;96,12789;5
249,99799;122,50000;96,09366;5
250,00203;125,00000;96,03154;5
250,00405;127,50000;95,95335;5
250,00500;130,00000;95,89130;5
250,00501;132,50000;95,81287;5
250,00198;135,00000;95,76261;5
250,00502;137,50000;95,68651;5
250,00496;140,00000;95,63840;5
249,99895;142,50000;95,57219;5
250,00904;145,00000;95,51213;5
250,00298;147,50000;95,44176;5
250,00396;150,00000;95,36344;5
250,00897;152,50000;95,29330;5
250,00307;155,00000;95,21297;5
250,00902;157,50000;95,15882;5
250,00395;160,00000;95,05631;5
250,00598;162,50000;94,99844;5
250,00697;165,00000;94,93845;5
250,00401;167,50000;94,83592;5
249,99999;170,00000;94,77770;5
250,01097;172,50000;94,72530;5
249,99897;175,00000;94,65725;5
250,00300;177,50000;94,56907;5
250,00800;180,00000;94,54713;5
250,00499;182,50000;94,44860;5
250,00806;185,00000;94,37862;5
250,00599;187,50000;94,33212;5
250,00599;190,00000;94,24984;5
249,99999;192,50000;94,16592;5
250,00599;195,00000;94,10953;5
250,00494;197,50000;94,04124;5
250,00303;200,00000;93,98109;5
250,00401;202,50000;93,89322;5
250,01001;205,00000;93,81473;5
250,00901;207,50000;93,76462;5
250,00200;210,00000;93,69224;5
250,00800;212,50000;93,62810;5
250,00397;215,00000;93,56187;5
250,00901;217,50000;93,50580;5
249,99990;220,00000;93,41528;5
250,00299;222,50000;93,37139;5
250,00401;225,00000;93,28691;5
250,00604;227,50000;93,19263;5
250,01002;230,00000;93,13460;5
250,00503;232,50000;93,07418;5
250,00302;235,00000;93,00616;5
250,00203;237,50000;92,91204;5
250,00801;240,00000;92,85778;5
250,00704;242,50000;92,80560;5
250,00997;245,00000;92,71733;5
250,00697;247,50000;92,63911;5
250,00595;250,00000;92,58087;5
250,00405;252,50000;92,52064;5
250,00200;255,00000;92,43038;5
250,00500;257,50000;92,37029;5
250,00402;260,00000;92,33224;5
250,01097;262,50000;92,23969;5
250,01299;265,00000;92,23775;5
249,98601;267,50000;92,10346;5
249,99801;270,00000;92,05312;5
250,01003;272,50000;92,00114;5
249,99202;275,00000;91,89064;5
250,00602;277,50000;91,85452;5
250,00697;280,00000;91,77427;5
250,00306;282,50000;91,70390;5
250,00799;285,00000;91,65806;5
250,00703;287,50000;91,57965;5
250,00401;290,00000;91,52545;5
250,00999;292,50000;91,45145;5
250,00800;295,00000;91,37497;5
250,00796;297,50000;91,30491;5
250,00401;300,00000;91,22881;5
250,00702;302,50000;91,17640;5
250,00400;305,00000;91,09416;5
250,00404;307,50000;91,06829;5
250,00297;310,00000;91,02609;5
250,00499;312,50000;90,92947;5
250,01502;315,00000;90,90967;5
250,00397;317,50000;90,85337;5
250,00601;320,00000;90,77721;5
250,00601;322,50000;90,69892;5
250,00299;325,00000;90,66692;5
250,00797;327,50000;90,59067;5
250,00400;330,00000;90,52447;5
249,99702;332,50000;90,46637;5
250,00699;335,00000;90,41804;5
249,99801;337,50000;90,34805;5
250,01001;340,00000;90,28149;5
250,01298;342,50000;90,24963;5
250,00698;345,00000;90,14703;5
250,00998;347,50000;90,08310;5
250,00299;350,00000;90,05691;5
250,00699;352,50000;89,98881;5
250,00300;355,00000;89,93072;5
250,00604;357,50000;89,87228;5
250,00700;360,00000;89,80618;5
250,01100;362,50000;89,74605;5
250,00399;365,00000;89,68360;5
250,00204;367,50000;89,61354;5
250,00705;370,00000;89,54330;5
250,00601;372,50000;89,50735;5
250,00800;375,00000;89,41882;5
250,00496;377,50000;89,35470;5
250,01198;380,00000;89,31471;5
250,00499;382,50000;89,24650;5
250,00401;385,00000;89,19848;5
250,00702;387,50000;89,12012;5
250,00798;390,00000;89,04185;5
250,00696;392,50000;88,98955;5
250,00299;395,00000;88,91541;5
250,00598;397,50000;88,85316;5
250,00501;400,00000;88,78702;5
250,00599;402,50000;88,73077;5
250,00500;405,00000;88,65449;5
250,00703;407,50000;88,60056;5
250,00499;410,00000;88,52404;5
250,00596;412,50000;88,48400;5
250,00994;415,00000;88,41384;5
250,00604;417,50000;88,37573;5
250,00193;420,00000;88,32952;5
250,00599;422,50000;88,24116;5
250,00599;425,00000;88,18909;5
250,00300;427,50000;88,09494;5
250,00697;430,00000;88,05272;5
250,00108;432,50000;87,99059;5
250,00701;435,00000;87,95836;5
250,01101;437,50000;87,87791;5
250,00597;440,00000;87,80788;5
250,00198;442,50000;87,75182;5
250,00600;445,00000;87,69959;5
250,00398;447,50000;87,64954;5
250,00704;450,00000;87,57929;5
250,00303;452,50000;87,52104;5
250,00501;455,00000;87,46685;5
250,00601;457,50000;87,40261;5
250,00198;460,00000;87,35065;5
250,00704;462,50000;87,27627;5
250,00398;465,00000;87,23818;5
250,00800;467,50000;87,15785;5
250,00898;470,00000;87,10384;5
250,00799;472,50000;87,04346;5
250,00300;475,00000;86,98539;5
250,00402;477,50000;86,92536;5
250,00699;480,00000;86,86511;5
250,00998;482,50000;86,81485;5
250,00002;485,00000;86,77058;5
250,00597;487,50000;86,70643;5
250,00601;490,00000;86,66211;5
250,00303;492,50000;86,59834;5
250,00297;495,00000;86,56619;5
250,01201;497,50000;86,54396;5
250,00700;500,00000;86,49994;5
250,00505;502,50000;86,42976;5
250,00000;505,00000;86,38155;5
250,00701;507,50000;86,35523;5
250,00402;510,00000;86,28321;5
250,00599;512,50000;86,22290;5
250,00699;515,00000;86,17283;5
250,00396;517,50000;86,14873;5
250,00597;520,00000;86,10266;5
250,00198;522,50000;86,06254;5
250,00603;525,00000;85,98616;5
250,01401;527,50000;85,94212;5
250,00702;530,00000;85,92400;5
250,00699;532,50000;85,86371;5
250,00203;535,00000;85,81181;5
250,01398;537,50000;85,79166;5
250,00300;540,00000;85,76156;5
250,00600;542,50000;85,69131;5
250,00101;545,00000;85,66527;5
250,00201;547,50000;85,62114;5
250,00797;550,00000;85,57100;5
250,00395;552,50000;85,54072;5
250,00399;555,00000;85,50079;5
250,00700;557,50000;85,45458;5
250,00306;560,00000;85,41841;5
250,00802;562,50000;85,37224;5
250,00399;565,00000;85,32624;5
250,00996;567,50000;85,28210;5
250,00600;570,00000;85,27000;5
250,00200;572,50000;85,20965;5
250,00305;575,00000;85,14969;5
249,99996;577,50000;85,14363;5
250,00502;580,00000;85,08942;5
250,00602;582,50000;85,03735;5
249,99997;585,00000;85,00924;5
250,00601;587,50000;84,98096;5
250,00505;590,00000;84,92684;5
250,01403;592,50000;84,90888;5
250,01095;595,00000;84,87268;5
250,00205;597,50000;84,80252;5
250,01001;600,00000;84,78447;5
250,00597;602,50000;84,74634;5
250,00502;605,00000;84,70623;5
250,00099;607,50000;84,66210;5
250,00400;610,00000;84,62004;5
250,00700;612,50000;84,58991;5
250,00597;615,00000;84,54567;5
250,00899;617,50000;84,49563;5
250,00703;620,00000;84,45152;5
250,00297;622,50000;84,41942;5